isi,block,trial,isi_ms,isi_frames,theta,log_cnt,resp,rt,stim_duration,blank_duration,cnt,correct
33,1,1,640,64,-45,-1.76217139591459,1,2.76180520000003,0.0298407083242864,0.639523191675721,0.0172913381551982,0
48,1,2,940,94,45,-1.76217139591459,1,0.626247699999908,0.029912999999965,0.943758900000034,0.0172913381551982,1
39,1,3,760,76,45,-1.76217139591459,1,0.601683900000012,0.0299761999999646,0.760152299999959,0.0172913381551982,1
8,1,4,140,14,45,-1.76217139591459,1,0.723825300000044,0.0300956000000951,0.141927299999907,0.0172913381551982,1
22,1,5,420,42,45,-1.76217139591459,1,0.969438200000013,0.0299310999999989,0.42389860000003,0.0172913381551982,1
12,1,6,220,22,45,-1.76217139591459,1,0.645778800000016,0.0299974000000702,0.219944100000021,0.0172913381551982,1
3,1,7,40,4,45,-1.76217139591459,1,0.698139800000035,0.030061499999988,0.0401333999999451,0.0172913381551982,1
38,1,8,740,74,-45,-1.76217139591459,-1,1.29013050000003,0.0297815999999784,0.744383099999936,0.0172913381551982,1
2,1,9,20,2,45,-1.76217139591459,1,0.508077800000024,0.0299307999999883,0.0221055000000661,0.0172913381551982,1
42,1,10,820,82,45,-1.76217139591459,1,0.445646900000042,0.0300273999999945,0.820148500000073,0.0172913381551982,1
39,1,11,760,76,45,-1.76217139591459,1,0.435528799999929,0.0299452000000429,0.765756099999976,0.0172913381551982,1
25,1,12,480,48,45,-1.76217139591459,1,0.451808299999925,0.0299031494729434,0.478441250527112,0.0172913381551982,1
43,1,13,840,84,45,-1.76217139591459,1,0.485956299999998,0.0299266000000671,0.844545799999992,0.0172913381551982,1
35,1,14,680,68,-45,-1.76217139591459,1,0.649277500000039,0.0300571999999875,0.680262399999947,0.0172913381551982,0
33,1,15,640,64,45,-1.76217139591459,1,0.531635800000004,0.0298853906216436,0.638525609378348,0.0172913381551982,1
49,1,16,960,96,-45,-1.76217139591459,1,0.605340899999987,0.0300088999999844,0.964182999999935,0.0172913381551982,0
8,1,17,140,14,45,-1.76217139591459,1,0.661398100000042,0.0298916000000418,0.140427199999976,0.0172913381551982,1
17,1,18,320,32,45,-1.76217139591459,1,0.623252600000001,0.0299681999999848,0.322372299999984,0.0172913381551982,1
1,1,19,0,0,45,-1.76217139591459,1,0.765650399999913,0.029858900000022,0.00446290000002136,0.0172913381551982,1
18,1,20,340,34,-45,-1.76217139591459,1,0.569183800000019,0.0299173999999311,0.344690700000001,0.0172913381551982,0
41,1,21,800,80,-45,-1.76217139591459,1,0.52945120000004,0.0300813000000062,0.800665299999991,0.0172913381551982,0
37,1,22,720,72,45,-1.76217139591459,1,0.577431299999944,0.0300285000000713,0.720793999999955,0.0172913381551982,1
50,1,23,980,98,-45,-1.76217139591459,1,0.441372699999988,0.0299860000000081,0.984582199999977,0.0172913381551982,0
35,1,24,680,68,-45,-1.76217139591459,1,0.455377999999996,0.0299784999999702,0.682786800000031,0.0172913381551982,0
20,1,25,380,38,-45,-1.76217139591459,1,0.479232200000069,0.0299746000000596,0.386609199999953,0.0172913381551982,0
4,1,26,60,6,-45,-1.76217139591459,1,0.647174800000016,0.0299768999999515,0.0585939000000053,0.0172913381551982,0
28,1,27,540,54,45,-1.76217139591459,1,0.515188999999964,0.0300341999999318,0.542468400000075,0.0172913381551982,1
39,1,28,760,76,-45,-1.76217139591459,1,0.361149999999952,0.0299788000000945,0.760567199999969,0.0172913381551982,0
15,1,29,280,28,45,-1.76217139591459,1,0.569186500000001,0.0299336000000494,0.280962499999987,0.0172913381551982,1
11,1,30,200,20,45,-1.76217139591459,1,0.534977299999923,0.030040299999996,0.202662000000032,0.0172913381551982,1
20,1,31,380,38,45,-1.76217139591459,1,0.613175299999966,0.0299702999999454,0.380798600000048,0.0172913381551982,1
21,1,32,400,40,-45,-1.76217139591459,1,0.561048700000015,0.0299361999999519,0.40083560000005,0.0172913381551982,0
27,1,33,520,52,45,-1.76217139591459,1,1.51077620000001,0.0298882000000731,0.523154299999987,0.0172913381551982,1
4,1,34,60,6,45,-1.76217139591459,1,0.582889000000023,0.0299215000000004,0.0589509999999791,0.0172913381551982,1
27,1,35,520,52,45,-1.76217139591459,1,0.582782299999963,0.029918299999963,0.522874200000047,0.0172913381551982,1
22,1,36,420,42,45,-1.76217139591459,1,0.443006299999979,0.0299847999999656,0.422908100000086,0.0172913381551982,1
40,1,37,780,78,45,-1.76217139591459,1,0.728659099999959,0.0298479000000498,0.777059000000008,0.0172913381551982,1
4,1,38,60,6,45,-1.76217139591459,1,0.624971899999991,0.029932199999962,0.064969499999961,0.0172913381551982,1
10,1,39,180,18,-45,-1.76217139591459,-1,0.540543000000071,0.0299901000000773,0.181291399999964,0.0172913381551982,1
3,1,40,40,4,45,-1.76217139591459,1,0.698761999999988,0.0299906000000192,0.0389094999999315,0.0172913381551982,1
48,1,41,940,94,-45,-1.76217139591459,1,0.640456900000004,0.0300198999999566,0.945113400000082,0.0172913381551982,0
30,1,42,580,58,45,-1.76217139591459,1,0.622611899999924,0.0299164624863124,0.579296537513756,0.0172913381551982,1
2,1,43,20,2,45,-1.76217139591459,1,0.638945400000011,0.0299727999999959,0.0191899000000149,0.0172913381551982,1
23,1,44,440,44,-45,-1.76217139591459,1,0.454559900000049,0.0299199999999473,0.443172600000025,0.0172913381551982,0
34,1,45,660,66,-45,-1.76217139591459,1,0.476373299999977,0.0299923000000035,0.661168699999962,0.0172913381551982,0
34,1,46,660,66,45,-1.76217139591459,1,0.460343599999987,0.0299969000000146,0.661325599999941,0.0172913381551982,1
9,1,47,160,16,-45,-1.76217139591459,1,0.478480800000057,0.0299365999999281,0.163601100000051,0.0172913381551982,0
42,1,48,820,82,-45,-1.76217139591459,1,0.540633299999968,0.029974100000004,0.821325100000081,0.0172913381551982,0
19,1,49,360,36,45,-1.76217139591459,1,0.422617700000046,0.0299714999998741,0.363583600000084,0.0172913381551982,1
36,1,50,700,70,45,-1.76217139591459,1,0.744206700000177,0.029893785932245,0.697741314067571,0.0172913381551982,1
29,1,51,560,56,45,-1.76217139591459,1,0.716424499999903,0.0299783000000389,0.565450800000008,0.0172913381551982,1
38,1,52,740,74,-45,-1.76217139591459,-1,0.496122999999898,0.0298880999998801,0.737493600000107,0.0172913381551982,1
3,1,53,40,4,-45,-1.76217139591459,-1,0.612745900000164,0.0299350000000231,0.0454581000001326,0.0172913381551982,1
17,1,54,320,32,-45,-1.76217139591459,-1,0.524378500000012,0.0299426000001404,0.325291399999969,0.0172913381551982,1
31,1,55,600,60,45,-1.76217139591459,1,0.628509800000074,0.0300462000000152,0.605740400000059,0.0172913381551982,1
44,1,56,860,86,-45,-1.76217139591459,-1,0.664224299999887,0.0298847270810256,0.857603772918992,0.0172913381551982,1
10,1,57,180,18,45,-1.76217139591459,1,0.570525800000041,0.0299420999999711,0.183677400000079,0.0172913381551982,1
16,1,58,300,30,45,-1.76217139591459,1,0.504364600000144,0.0298786765540626,0.297768123446076,0.0172913381551982,1
28,1,59,540,54,45,-1.76217139591459,1,0.48601819999999,0.0299558000001525,0.539400499999829,0.0172913381551982,1
15,1,60,280,28,-45,-1.76217139591459,-1,0.554266699999971,0.0299159999999574,0.279699100000016,0.0172913381551982,1
38,1,61,740,74,-45,-1.76217139591459,-1,0.472314300000107,0.0299459999998817,0.74599390000003,0.0172913381551982,1
30,1,62,580,58,-45,-1.76217139591459,1,0.544150100000024,0.0298680494731798,0.577827850527001,0.0172913381551982,0
16,1,63,300,30,45,-1.76217139591459,1,0.464391199999909,0.0299605000000156,0.305850199999895,0.0172913381551982,1
36,1,64,700,70,45,-1.76217139591459,1,0.562258700000029,0.0299368999999388,0.70375910000007,0.0172913381551982,1
14,1,65,260,26,-45,-1.76217139591459,-1,0.7941679999999,0.0300245999999333,0.263740800000051,0.0172913381551982,1
5,1,66,80,8,45,-1.76217139591459,1,0.72358179999992,0.0299712000000909,0.0781904999998915,0.0172913381551982,1
21,1,67,400,40,-45,-1.76217139591459,-1,0.619856300000038,0.0299185999999736,0.405830299999934,0.0172913381551982,1
50,1,68,980,98,45,-1.76217139591459,1,0.55976869999995,0.0298515859321924,0.97828471406774,0.0172913381551982,1
5,1,69,80,8,45,-1.76217139591459,1,0.910008400000152,0.0299873000001298,0.0838773999998921,0.0172913381551982,1
32,1,70,620,62,45,-1.76217139591459,-1,0.552116000000069,0.0298046953107587,0.618365304689178,0.0172913381551982,0
24,1,71,460,46,-45,-1.76217139591459,1,0.593830300000036,0.0299372000001767,0.4639173999999,0.0172913381551982,0
45,1,72,880,88,45,-1.76217139591459,1,0.635918000000174,0.0300159000000804,0.885981399999991,0.0172913381551982,1
47,1,73,920,92,-45,-1.76217139591459,-1,0.555481100000179,0.0298810354051966,0.918525564594802,0.0172913381551982,1
14,1,74,260,26,45,-1.76217139591459,1,0.749914799999942,0.0299605999998676,0.260352600000033,0.0172913381551982,1
40,1,75,780,78,-45,-1.76217139591459,1,0.451819200000045,0.0299502999998822,0.782109100000071,0.0172913381551982,0
19,1,76,360,36,-45,-1.76217139591459,-1,0.619485499999882,0.0298869859323077,0.358531914067726,0.0172913381551982,1
37,1,77,720,72,-45,-1.76217139591459,-1,0.507463899999948,0.0300055000000157,0.726427300000068,0.0172913381551982,1
28,1,78,540,54,45,-1.76217139591459,1,0.517330700000002,0.0300426000001153,0.540152199999966,0.0172913381551982,1
44,1,79,860,86,45,-1.76217139591459,1,0.495388400000138,0.0299833999999919,0.86625099999992,0.0172913381551982,1
7,1,80,120,12,-45,-1.76217139591459,1,1.07728159999988,0.0299876999999924,0.124301099999911,0.0172913381551982,0
49,1,81,960,96,-45,-1.76217139591459,1,0.507560400000102,0.0299969999998666,0.966282999999976,0.0172913381551982,0
40,1,82,780,78,45,-1.76217139591459,1,0.643323400000099,0.0299820000000182,0.782632299999932,0.0172913381551982,1
15,1,83,280,28,45,-1.76217139591459,-1,0.793157000000065,0.0299942999999985,0.280656599999929,0.0172913381551982,0
23,1,84,440,44,45,-1.76217139591459,1,0.713223700000071,0.0299463999999716,0.440444500000012,0.0172913381551982,1
18,1,85,340,34,-45,-1.76217139591459,-1,0.697165300000052,0.0299439999998867,0.344553700000006,0.0172913381551982,1
18,1,86,340,34,-45,-1.76217139591459,-1,0.45527049999987,0.0299486999999772,0.346499499999936,0.0172913381551982,1
10,1,87,180,18,-45,-1.76217139591459,-1,0.875422200000003,0.0300686999999016,0.182524300000068,0.0172913381551982,1
29,1,88,560,56,-45,-1.76217139591459,-1,0.691551499999832,0.0299898000000667,0.558801099999982,0.0172913381551982,1
11,1,89,200,20,45,-1.76217139591459,1,0.691167599999972,0.0298867999999857,0.206584300000031,0.0172913381551982,1
47,1,90,920,92,45,-1.76217139591459,1,0.7772551999999,0.0299555000001419,0.920900599999868,0.0172913381551982,1
24,1,91,460,46,45,-1.76217139591459,1,0.771315500000128,0.030071800000087,0.46263870000007,0.0172913381551982,1
11,1,92,200,20,45,-1.76217139591459,1,0.601222999999891,0.0299669000000904,0.201002900000049,0.0172913381551982,1
45,1,93,880,88,-45,-1.76217139591459,1,0.627296900000147,0.0298735400945134,0.878894359905644,0.0172913381551982,0
19,1,94,360,36,45,-1.76217139591459,1,0.724908599999935,0.0299417999999605,0.364768400000003,0.0172913381551982,1
23,1,95,440,44,45,-1.76217139591459,1,0.505288000000064,0.0299812999999176,0.440878800000064,0.0172913381551982,1
22,1,96,420,42,45,-1.76217139591459,1,0.523344700000052,0.0299519000000146,0.423115800000005,0.0172913381551982,1
43,1,97,840,84,45,-1.76217139591459,1,0.488970399999971,0.0298930999999811,0.841149800000039,0.0172913381551982,1
13,1,98,240,24,-45,-1.76217139591459,1,0.880692299999964,0.0300565999998526,0.240950100000191,0.0172913381551982,0
36,1,99,700,70,45,-1.76217139591459,1,1.15300139999999,0.029998599999999,0.704996300000175,0.0172913381551982,1
32,1,100,620,62,-45,-1.76217139591459,1,0.64498709999998,0.0299692999999479,0.621245000000044,0.0172913381551982,0
25,1,101,480,48,45,-1.76217139591459,-1,0.382800899999893,0.0300506000000951,0.482989099999941,0.0172913381551982,0
6,1,102,100,10,-45,-1.76217139591459,-1,0.558952099999942,0.0299486999999772,0.0991771999999855,0.0172913381551982,1
21,1,103,400,40,-45,-1.76217139591459,-1,0.428997399999844,0.0299696999998105,0.405068000000028,0.0172913381551982,1
9,1,104,160,16,45,-1.76217139591459,-1,0.720901300000151,0.0299580999999307,0.161170600000105,0.0172913381551982,0
6,1,105,100,10,-45,-1.76217139591459,-1,0.654802999999902,0.0298601999998027,0.099279800000204,0.0172913381551982,1
6,1,106,100,10,45,-1.76217139591459,1,0.63475840000001,0.0299767999999858,0.103469500000074,0.0172913381551982,1
34,1,107,660,66,-45,-1.76217139591459,-1,0.878676299999825,0.0300131999999849,0.659223600000132,0.0172913381551982,1
51,1,108,1000,100,45,-1.76217139591459,1,0.646775200000093,0.030010700000048,1.00325350000003,0.0172913381551982,1
29,1,109,560,56,-45,-1.76217139591459,-1,0.512795500000038,0.0299387000000024,0.561220399999911,0.0172913381551982,1
48,1,110,940,94,-45,-1.76217139591459,-1,0.776445299999978,0.0298432718648201,0.937495328135356,0.0172913381551982,1
31,1,111,600,60,45,-1.76217139591459,-1,0.742414600000075,0.0299021999999241,0.603604399999995,0.0172913381551982,0
32,1,112,620,62,45,-1.76217139591459,-1,0.608581400000048,0.0299539999998615,0.625733200000013,0.0172913381551982,0
41,1,113,800,80,-45,-1.76217139591459,-1,0.50823000000014,0.0299841000000924,0.805433199999925,0.0172913381551982,1
50,1,114,980,98,-45,-1.76217139591459,-1,0.728429700000106,0.0300408999999036,0.985430299999962,0.0172913381551982,1
42,1,115,820,82,45,-1.76217139591459,1,1.41998480000007,0.030051100000037,0.821787399999948,0.0172913381551982,1
41,1,116,800,80,45,-1.76217139591459,1,0.73799340000005,0.0299729999999272,0.799659799999972,0.0172913381551982,1
46,1,117,900,90,45,-1.76217139591459,1,0.829906099999789,0.0301001000000269,0.899608999999828,0.0172913381551982,1
46,1,118,900,90,45,-1.76217139591459,1,0.664315199999919,0.0299066000000039,0.906016799999861,0.0172913381551982,1
27,1,119,520,52,45,-1.76217139591459,-1,0.582152399999813,0.0299994999998034,0.523843900000202,0.0172913381551982,0
44,1,120,860,86,45,-1.76217139591459,1,0.610175099999879,0.0299271999999746,0.863782399999991,0.0172913381551982,1
25,1,121,480,48,45,-1.76217139591459,1,0.916033299999981,0.029867790621438,0.478136909378463,0.0172913381551982,1
33,1,122,640,64,-45,-1.76217139591459,1,0.466145999999981,0.0300108999999793,0.639977199999976,0.0172913381551982,0
7,1,123,120,12,45,-1.76217139591459,1,0.700025699999969,0.0298715953108513,0.118026404689317,0.0172913381551982,1
49,1,124,960,96,-45,-1.76217139591459,-1,0.675585700000056,0.0298587307161142,0.958116569283902,0.0172913381551982,1
17,1,125,320,32,45,-1.76217139591459,-1,0.595812099999875,0.0299186859322162,0.318002714067688,0.0172913381551982,0
46,1,126,900,90,-45,-1.76217139591459,-1,0.607953899999984,0.0298799624863477,0.898122937513563,0.0172913381551982,1
1,1,127,0,0,-45,-1.76217139591459,-1,0.683790499999986,0.0299823000000288,0.00623569999993379,0.0172913381551982,1
7,1,128,120,12,45,-1.76217139591459,1,0.683767100000068,0.0299076953106123,0.118302104689292,0.0172913381551982,1
1,1,129,0,0,-45,-1.76217139591459,1,0.750110000000177,0.0299357999999756,0.00412570000003143,0.0172913381551982,0
9,1,130,160,16,45,-1.76217139591459,-1,0.979691999999886,0.0299075999998877,0.158270600000151,0.0172913381551982,0
14,1,131,260,26,45,-1.76217139591459,1,0.507436599999892,0.029988099999855,0.262425800000074,0.0172913381551982,1
45,1,132,880,88,45,-1.76217139591459,1,1.03979279999999,0.0299571999998989,0.882227700000158,0.0172913381551982,1
35,1,133,680,68,-45,-1.76217139591459,1,0.917640500000061,0.0299685999998474,0.684344700000111,0.0172913381551982,0
8,1,134,140,14,45,-1.76217139591459,1,0.563309500000059,0.0300027999999202,0.142546300000049,0.0172913381551982,1
51,1,135,1000,100,-45,-1.76217139591459,-1,0.549867400000039,0.0299777999998696,1.00430790000019,0.0172913381551982,1
12,1,136,220,22,-45,-1.76217139591459,-1,0.727310899999793,0.0299253307159688,0.218833369283857,0.0172913381551982,1
20,1,137,380,38,-45,-1.76217139591459,-1,0.551504300000033,0.0298437953106259,0.378557604689377,0.0172913381551982,1
43,1,138,840,84,45,-1.76217139591459,1,0.489508299999898,0.0299958999999035,0.840418200000158,0.0172913381551982,1
12,1,139,220,22,45,-1.76217139591459,1,0.633281899999929,0.0299626999999418,0.216349900000068,0.0172913381551982,1
31,1,140,600,60,45,-1.76217139591459,1,0.681083899999976,0.0300758999999289,0.60070410000003,0.0172913381551982,1
16,1,141,300,30,-45,-1.76217139591459,-1,0.615311600000041,0.0299222130136059,0.298721886986414,0.0172913381551982,1
30,1,142,580,58,45,-1.76217139591459,1,0.798984800000198,0.0299499000000196,0.578888000000006,0.0172913381551982,1
51,1,143,1000,100,-45,-1.76217139591459,1,0.762948100000131,0.0300370999998449,0.998942500000112,0.0172913381551982,0
26,1,144,500,50,45,-1.76217139591459,-1,0.715286999999989,0.030002100000047,0.502633299999843,0.0172913381551982,0
5,1,145,80,8,-45,-1.76217139591459,-1,0.707420299999967,0.0300038000000313,0.0786121999999523,0.0172913381551982,1
37,1,146,720,72,-45,-1.76217139591459,-1,0.594791299999997,0.0301341000001685,0.7189742999999,0.0172913381551982,1
2,1,147,20,2,-45,-1.76217139591459,1,1.70696320000002,0.0299958999999035,0.0227102999999715,0.0172913381551982,0
24,1,148,460,46,-45,-1.76217139591459,-1,0.615101699999968,0.0299204906216346,0.458957009378537,0.0172913381551982,1
26,1,149,500,50,45,-1.76217139591459,1,0.668827899999997,0.0299135000000206,0.501086600000008,0.0172913381551982,1
47,1,150,920,92,-45,-1.76217139591459,-1,1.49693330000014,0.0299962999999934,0.921164500000032,0.0172913381551982,1
13,1,151,240,24,45,-1.76217139591459,1,0.530573199999935,0.0298916000001554,0.239103599999908,0.0172913381551982,1
26,1,152,500,50,45,-1.76217139591459,1,0.492643399999906,0.0299417999999605,0.501013199999989,0.0172913381551982,1
13,1,153,240,24,45,-1.76217139591459,1,1.64464410000005,0.0299186999998255,0.245319800000061,0.0172913381551982,1
5,2,154,80,8,-45,-1.76217139591459,-1,0.94840279999994,0.0298268999999891,0.0777842999998484,0.0172913381551982,1
11,2,155,200,20,45,-1.76217139591459,1,0.504107599999998,0.0299881000000823,0.202018299999963,0.0172913381551982,1
42,2,156,820,82,45,-1.76217139591459,1,0.634192600000006,0.0300119999999424,0.823470999999927,0.0172913381551982,1
1,2,157,0,0,-45,-1.76217139591459,-1,0.622085799999923,0.0299221000000216,0.00358710000000428,0.0172913381551982,1
33,2,158,640,64,-45,-1.76217139591459,1,0.719964699999991,0.0300153999999111,0.641872300000159,0.0172913381551982,0
26,2,159,500,50,45,-1.76217139591459,-1,0.336191799999824,0.0298500000001241,0.49788209999997,0.0172913381551982,0
10,2,160,180,18,45,-1.76217139591459,-1,0.588167100000192,0.030066399999896,0.181816000000026,0.0172913381551982,0
46,2,161,900,90,-45,-1.76217139591459,-1,0.732196600000179,0.0299913999999717,0.902047899999843,0.0172913381551982,1
14,2,162,260,26,45,-1.76217139591459,-1,1.10028130000001,0.0299853999999868,0.26222329999996,0.0172913381551982,0
49,2,163,960,96,-45,-1.76217139591459,1,0.609901700000137,0.0299987000000783,0.9602296999999,0.0172913381551982,0
24,2,164,460,46,45,-1.76217139591459,1,0.737705600000027,0.0299238999998579,0.464226199999985,0.0172913381551982,1
11,2,165,200,20,45,-1.76217139591459,1,0.58161640000003,0.0299746999999115,0.203959700000041,0.0172913381551982,1
7,2,166,120,12,45,-1.76217139591459,1,0.459607900000037,0.0298852999999326,0.118148000000019,0.0172913381551982,1
15,2,167,280,28,45,-1.76217139591459,1,0.348053000000164,0.0298707000001741,0.27815129999999,0.0172913381551982,1
24,2,168,460,46,45,-1.76217139591459,1,0.3914149000002,0.0299270000000433,0.458189800000127,0.0172913381551982,1
16,2,169,300,30,-45,-1.76217139591459,-1,0.49602660000005,0.0298458999998275,0.306099399999994,0.0172913381551982,1
36,2,170,700,70,-45,-1.76217139591459,-1,0.623841099999936,0.029953100000057,0.706124199999977,0.0172913381551982,1
12,2,171,220,22,-45,-1.76217139591459,-1,0.615798499999983,0.029895017702529,0.218526582297272,0.0172913381551982,1
29,2,172,560,56,-45,-1.76217139591459,1,0.627598000000035,0.0299485000000459,0.558204599999954,0.0172913381551982,0
34,2,173,660,66,-45,-1.76217139591459,-1,0.71593299999995,0.0300185999999485,0.662417699999878,0.0172913381551982,1
38,2,174,740,74,45,-1.76217139591459,1,0.511629300000095,0.0299904000000879,0.738510700000006,0.0172913381551982,1
46,2,175,900,90,-45,-1.76217139591459,-1,0.637720299999955,0.0299238000000059,0.900413800000024,0.0172913381551982,1
36,2,176,700,70,45,-1.76217139591459,1,0.623364300000048,0.0299807999999757,0.706181100000094,0.0172913381551982,1
45,2,177,880,88,-45,-1.76217139591459,1,0.895580500000051,0.0299638999999843,0.882599000000027,0.0172913381551982,0
21,2,178,400,40,-45,-1.76217139591459,-1,0.561568800000032,0.0299847000001137,0.400318299999981,0.0172913381551982,1
32,2,179,620,62,45,-1.76217139591459,-1,0.70946600000002,0.0299751000000015,0.620679399999972,0.0172913381551982,0
13,2,180,240,24,45,-1.76217139591459,1,0.655391999999893,0.0299185999999736,0.2428503000001,0.0172913381551982,1
32,2,181,620,62,45,-1.76217139591459,1,0.577501500000153,0.0299169999998412,0.62453800000003,0.0172913381551982,1
10,2,182,180,18,-45,-1.76217139591459,-1,0.623116700000082,0.0298824000001332,0.178525099999888,0.0172913381551982,1
32,2,183,620,62,45,-1.76217139591459,-1,0.481334300000071,0.0299823000000288,0.624503699999877,0.0172913381551982,0
33,2,184,640,64,-45,-1.76217139591459,-1,0.691127699999925,0.0299830000001293,0.638535899999852,0.0172913381551982,1
38,2,185,740,74,-45,-1.76217139591459,-1,0.445038199999999,0.0299924000000829,0.740802699999904,0.0172913381551982,1
30,2,186,580,58,-45,-1.76217139591459,-1,0.577690399999938,0.0297931999998582,0.576974500000006,0.0172913381551982,1
21,2,187,400,40,-45,-1.76217139591459,-1,0.590977300000077,0.0300459000000046,0.402851100000134,0.0172913381551982,1
19,2,188,360,36,45,-1.76217139591459,1,0.653268799999978,0.0300180999997792,0.356720900000028,0.0172913381551982,1
23,2,189,440,44,-45,-1.76217139591459,-1,0.618790099999842,0.0299101307159617,0.438730869283972,0.0172913381551982,1
7,2,190,120,12,-45,-1.76217139591459,-1,0.599397799999906,0.0299718999999641,0.122910199999978,0.0172913381551982,1
49,2,191,960,96,45,-1.76217139591459,-1,0.702890399999887,0.029993400000194,0.962816299999986,0.0172913381551982,0
15,2,192,280,28,45,-1.76217139591459,1,0.549269699999968,0.0299972000000253,0.28476610000007,0.0172913381551982,1
47,2,193,920,92,45,-1.76217139591459,1,0.509160100000145,0.0298908270808624,0.91716757291897,0.0172913381551982,1
37,2,194,720,72,-45,-1.76217139591459,-1,0.513282900000149,0.029802808324348,0.721192291675834,0.0172913381551982,1
31,2,195,600,60,-45,-1.76217139591459,-1,0.565278300000045,0.0299000999998498,0.604989100000012,0.0172913381551982,1
39,2,196,760,76,-45,-1.76217139591459,-1,0.595113900000115,0.029975899999954,0.766488100000061,0.0172913381551982,1
44,2,197,860,86,-45,-1.76217139591459,1,0.655054600000085,0.0299958000000515,0.866873499999883,0.0172913381551982,0
35,2,198,680,68,45,-1.76217139591459,1,0.488993599999958,0.0299901000000773,0.680955300000051,0.0172913381551982,1
27,2,199,520,52,-45,-1.76217139591459,-1,0.581035100000008,0.029925399999911,0.524975499999982,0.0172913381551982,1
36,2,200,700,70,-45,-1.76217139591459,1,0.648783999999978,0.0299259999999322,0.697039000000132,0.0172913381551982,0
29,2,201,560,56,-45,-1.76217139591459,-1,0.496642600000087,0.0299534000000676,0.561036699999931,0.0172913381551982,1
33,2,202,640,64,-45,-1.76217139591459,-1,1.00890000000004,0.0299669000000904,0.641062399999782,0.0172913381551982,1
16,2,203,300,30,45,-1.76217139591459,-1,0.913045499999953,0.029991900000141,0.305050699999811,0.0172913381551982,0
5,2,204,80,8,45,-1.76217139591459,1,0.6108870999999,0.0298973999999816,0.079161699999986,0.0172913381551982,1
16,2,205,300,30,-45,-1.76217139591459,1,0.560953400000017,0.0299561000001631,0.305215299999873,0.0172913381551982,0
5,2,206,80,8,45,-1.76217139591459,1,0.526486700000078,0.0300022999999783,0.0831307000000834,0.0172913381551982,1
28,2,207,540,54,45,-1.76217139591459,1,0.432853999999907,0.0299503999999615,0.545406400000047,0.0172913381551982,1
24,2,208,460,46,45,-1.76217139591459,1,0.416793599999892,0.0299282999999377,0.46520570000007,0.0172913381551982,1
3,2,209,40,4,-45,-1.76217139591459,1,0.46085549999998,0.0300287999998545,0.0371574000000692,0.0172913381551982,0
2,2,210,20,2,45,-1.76217139591459,1,0.632444000000078,0.0300377999999455,0.0254078000000391,0.0172913381551982,1
6,2,211,100,10,45,-1.76217139591459,1,0.394801600000164,0.030014299999948,0.10339440000007,0.0172913381551982,1
23,2,212,440,44,-45,-1.76217139591459,1,0.536280499999975,0.0299546000001101,0.441305799999782,0.0172913381551982,0
4,2,213,60,6,45,-1.76217139591459,1,0.500362300000006,0.0300002000001314,0.0612452999998823,0.0172913381551982,1
25,2,214,480,48,-45,-1.76217139591459,-1,0.468628599999874,0.0298300541619483,0.477502945838069,0.0172913381551982,1
28,2,215,540,54,-45,-1.76217139591459,-1,0.594632300000058,0.030134900000121,0.543308399999887,0.0172913381551982,1
39,2,216,760,76,45,-1.76217139591459,1,0.648275900000044,0.0299427000002197,0.761649999999918,0.0172913381551982,1
7,2,217,120,12,-45,-1.76217139591459,1,0.566569800000025,0.0300348000000668,0.123680200000081,0.0172913381551982,0
35,2,218,680,68,45,-1.76217139591459,1,0.554645500000106,0.0299360999999863,0.679686899999979,0.0172913381551982,1
43,2,219,840,84,45,-1.76217139591459,1,0.568375599999854,0.0300151999999798,0.84155880000003,0.0172913381551982,1
37,2,220,720,72,-45,-1.76217139591459,1,1.12048720000007,0.029995000000099,0.721534499999962,0.0172913381551982,0
6,2,221,100,10,45,-1.76217139591459,1,3.35821220000003,0.0299152000000049,0.0996755000001031,0.0172913381551982,1
21,2,222,400,40,-45,-1.76217139591459,-1,0.668545199999926,0.0298817999998846,0.405851200000143,0.0172913381551982,1
27,2,223,520,52,45,-1.76217139591459,1,0.632408299999952,0.0298735000001216,0.52165489999993,0.0172913381551982,1
41,2,224,800,80,45,-1.76217139591459,1,0.558267399999977,0.0300039999999626,0.803706099999999,0.0172913381551982,1
14,2,225,260,26,45,-1.76217139591459,1,0.638277400000106,0.0299873000001298,0.2599045999998,0.0172913381551982,1
44,2,226,860,86,-45,-1.76217139591459,1,0.501901299999872,0.0299735999999484,0.86002469999994,0.0172913381551982,0
30,2,227,580,58,45,-1.76217139591459,1,0.526161200000161,0.0300234999999702,0.580039299999953,0.0172913381551982,1
44,2,228,860,86,45,-1.76217139591459,1,0.482216299999891,0.0299485000000459,0.863968000000114,0.0172913381551982,1
41,2,229,800,80,-45,-1.76217139591459,1,0.44619089999992,0.0299684000001434,0.803825899999993,0.0172913381551982,0
18,2,230,340,34,45,-1.76217139591459,1,0.600115799999912,0.029969200000096,0.345800999999938,0.0172913381551982,1
51,2,231,1000,100,-45,-1.76217139591459,1,0.501688699999931,0.0299872999999025,1.00395400000002,0.0172913381551982,0
39,2,232,760,76,-45,-1.76217139591459,1,0.504181999999901,0.0298829000000751,0.761879099999987,0.0172913381551982,0
40,2,233,780,78,45,-1.76217139591459,1,0.514064599999983,0.0299804999999651,0.784051200000022,0.0172913381551982,1
47,2,234,920,92,45,-1.76217139591459,1,0.438127200000054,0.0299956000001202,0.924015899999858,0.0172913381551982,1
38,2,235,740,74,-45,-1.76217139591459,-1,0.680190000000039,0.0299744999999803,0.745996399999967,0.0172913381551982,1
20,2,236,380,38,45,-1.76217139591459,1,0.631851300000108,0.0298387812431429,0.378166818756881,0.0172913381551982,1
40,2,237,780,78,45,-1.76217139591459,1,0.551830099999961,0.0298780354053179,0.77848836459475,0.0172913381551982,1
48,2,238,940,94,-45,-1.76217139591459,1,0.963532100000066,0.0299575000001369,0.942078600000059,0.0172913381551982,0
50,2,239,980,98,-45,-1.76217139591459,1,0.911721999999827,0.0298876812432809,0.978402318756707,0.0172913381551982,0
8,2,240,140,14,-45,-1.76217139591459,-1,1.03141849999997,0.0299129999998513,0.138545300000033,0.0172913381551982,1
15,2,241,280,28,-45,-1.76217139591459,1,1.65572760000009,0.0299009000000297,0.282288599999902,0.0172913381551982,0
11,2,242,200,20,-45,-1.76217139591459,-1,0.889264500000081,0.0300048999999944,0.200279200000068,0.0172913381551982,1
23,2,243,440,44,-45,-1.76217139591459,1,0.729570900000226,0.0300118000000111,0.440604299999904,0.0172913381551982,0
50,2,244,980,98,-45,-1.76217139591459,-1,0.623587900000075,0.029933049472902,0.978539050526933,0.0172913381551982,1
40,2,245,780,78,45,-1.76217139591459,1,0.735254899999973,0.0301190000000133,0.786370499999975,0.0172913381551982,1
18,2,246,340,34,-45,-1.76217139591459,1,1.20784619999995,0.0300197999999909,0.346432999999934,0.0172913381551982,0
28,2,247,540,54,45,-1.76217139591459,1,0.633394700000053,0.0298762494728635,0.536878650527115,0.0172913381551982,1
12,2,248,220,22,-45,-1.76217139591459,-1,0.720843699999932,0.0298583056339794,0.225167794365916,0.0172913381551982,1
9,2,249,160,16,-45,-1.76217139591459,1,0.734798399999818,0.0300119000000905,0.162869199999932,0.0172913381551982,0
2,2,250,20,2,45,-1.76217139591459,1,0.522988299999952,0.0299260000001595,0.0228794999998172,0.0172913381551982,1
1,2,251,0,0,45,-1.76217139591459,1,0.507152399999995,0.0300058000000263,0.006934499999943,0.0172913381551982,1
19,2,252,360,36,-45,-1.76217139591459,1,0.427147000000105,0.0299394999999549,0.359171199999992,0.0172913381551982,0
27,2,253,520,52,45,-1.76217139591459,1,0.556934400000046,0.0299869000000399,0.51705190000007,0.0172913381551982,1
34,2,254,660,66,-45,-1.76217139591459,1,0.474686900000052,0.0300023999998302,0.66235450000022,0.0172913381551982,0
17,2,255,320,32,45,-1.76217139591459,1,0.578936200000044,0.0299090765540768,0.319208923446013,0.0172913381551982,1
34,2,256,660,66,-45,-1.76217139591459,1,0.510893599999918,0.0299056000001201,0.659183100000064,0.0172913381551982,0
4,2,257,60,6,-45,-1.76217139591459,-1,0.695073999999977,0.0299724000001333,0.0589173000000756,0.0172913381551982,1
31,2,258,600,60,-45,-1.76217139591459,1,0.539112899999964,0.0299562000000151,0.599010099999987,0.0172913381551982,0
51,2,259,1000,100,-45,-1.76217139591459,-1,0.60503790000007,0.0297716541620048,0.99723614583786,0.0172913381551982,1
46,2,260,900,90,45,-1.76217139591459,1,0.448459300000195,0.0299935223918055,0.897322477608213,0.0172913381551982,1
22,2,261,420,42,45,-1.76217139591459,1,0.494825400000082,0.0299978999998984,0.419142500000135,0.0172913381551982,1
35,2,262,680,68,45,-1.76217139591459,1,1.21252209999989,0.0299068177025674,0.677465782297304,0.0172913381551982,1
42,2,263,820,82,-45,-1.76217139591459,-1,0.536448300000075,0.0299242000000959,0.825502599999936,0.0172913381551982,1
14,2,264,260,26,-45,-1.76217139591459,-1,0.60475150000002,0.0300218999998378,0.261558500000092,0.0172913381551982,1
9,2,265,160,16,-45,-1.76217139591459,-1,0.468571399999973,0.0299030270809908,0.157435072919043,0.0172913381551982,1
8,2,266,140,14,45,-1.76217139591459,-1,0.752443200000016,0.0299488000000565,0.145298599999933,0.0172913381551982,0
4,2,267,60,6,45,-1.76217139591459,1,1.03249069999993,0.0298158999999032,0.0575363999998899,0.0172913381551982,1
22,2,268,420,42,45,-1.76217139591459,1,0.764640399999962,0.030011100000138,0.421404700000039,0.0172913381551982,1
50,2,269,980,98,-45,-1.76217139591459,-1,0.808610499999986,0.0299325000000863,0.985302099999899,0.0172913381551982,1
25,2,270,480,48,45,-1.76217139591459,1,2.33606310000005,0.0300154999999904,0.481387699999914,0.0172913381551982,1
43,2,271,840,84,45,-1.76217139591459,1,0.756151000000045,0.0300537999999051,0.845504699999992,0.0172913381551982,1
41,2,272,800,80,45,-1.76217139591459,1,0.368449800000008,0.0300973000000795,0.801715800000011,0.0172913381551982,1
25,2,273,480,48,-45,-1.76217139591459,1,0.416382900000144,0.0300457000000733,0.481812400000081,0.0172913381551982,0
9,2,274,160,16,-45,-1.76217139591459,-1,0.628471499999932,0.029841499999975,0.157746400000178,0.0172913381551982,1
17,2,275,320,32,45,-1.76217139591459,1,0.572076200000083,0.0299345000000812,0.325650799999949,0.0172913381551982,1
3,2,276,40,4,-45,-1.76217139591459,1,0.614459300000135,0.0299625000000106,0.0435730000001513,0.0172913381551982,0
1,2,277,0,0,45,-1.76217139591459,1,0.606365099999948,0.0299958999999035,0.00361739999993915,0.0172913381551982,1
22,2,278,420,42,45,-1.76217139591459,1,0.412278600000036,0.0300086999998257,0.421714900000097,0.0172913381551982,1
19,2,279,360,36,-45,-1.76217139591459,1,0.48398259999999,0.0299348000000919,0.365772099999958,0.0172913381551982,0
31,2,280,600,60,-45,-1.76217139591459,-1,0.458202400000118,0.0300035999998727,0.599623399999928,0.0172913381551982,1
12,2,281,220,22,45,-1.76217139591459,1,0.818282200000112,0.0299322000000757,0.224029900000005,0.0172913381551982,1
37,2,282,720,72,-45,-1.76217139591459,-1,0.530195900000081,0.0300207000000228,0.719800299999861,0.0172913381551982,1
47,2,283,920,92,-45,-1.76217139591459,1,0.533803799999987,0.0299820000000182,0.923696299999847,0.0172913381551982,0
49,2,284,960,96,-45,-1.76217139591459,-1,0.557891899999959,0.0299258000000009,0.964062899999817,0.0172913381551982,1
17,2,285,320,32,-45,-1.76217139591459,-1,0.479791299999988,0.0299745999998322,0.322085300000026,0.0172913381551982,1
26,2,286,500,50,45,-1.76217139591459,-1,0.368125499999906,0.0298646999999619,0.498297000000093,0.0172913381551982,0
2,2,287,20,2,-45,-1.76217139591459,-1,0.939955999999938,0.029989900000146,0.0218320999999833,0.0172913381551982,1
48,2,288,940,94,-45,-1.76217139591459,1,3.23203079999985,0.0299839999997857,0.945573200000126,0.0172913381551982,0
13,2,289,240,24,45,-1.76217139591459,-1,0.6435113,0.0298866130135593,0.238097586986441,0.0172913381551982,0
51,2,290,1000,100,45,-1.76217139591459,-1,0.823692899999969,0.0299791999998433,1.00228300000003,0.0172913381551982,0
6,2,291,100,10,45,-1.76217139591459,1,2.79962589999991,0.0299677000000429,0.0980810000000929,0.0172913381551982,1
29,2,292,560,56,-45,-1.76217139591459,-1,0.593394900000021,0.030022899999949,0.560360700000047,0.0172913381551982,1
8,2,293,140,14,-45,-1.76217139591459,-1,0.535400100000061,0.0299022000001514,0.138596499999949,0.0172913381551982,1
43,2,294,840,84,-45,-1.76217139591459,-1,0.72983720000002,0.0299924999999348,0.840507500000058,0.0172913381551982,1
18,2,295,340,34,-45,-1.76217139591459,-1,0.685604799999965,0.0299868999998125,0.340292600000112,0.0172913381551982,1
45,2,296,880,88,-45,-1.76217139591459,-1,0.543585099999973,0.0300007000000733,0.882344299999886,0.0172913381551982,1
42,2,297,820,82,-45,-1.76217139591459,-1,0.587324099999933,0.0299583999999413,0.822632000000112,0.0172913381551982,1
3,2,298,40,4,-45,-1.76217139591459,-1,0.65348199999994,0.029963600000201,0.0363055999998778,0.0172913381551982,1
30,2,299,580,58,-45,-1.76217139591459,1,0.871223599999894,0.0300100000001748,0.586295199999995,0.0172913381551982,0
13,2,300,240,24,45,-1.76217139591459,1,0.975214099999903,0.0300709999999071,0.242402699999957,0.0172913381551982,1
20,2,301,380,38,-45,-1.76217139591459,1,6.72534029999997,0.0300104999998894,0.380802899999935,0.0172913381551982,0
20,2,302,380,38,-45,-1.76217139591459,-1,0.999413000000004,0.0298698999999942,0.379049899999927,0.0172913381551982,1
45,2,303,880,88,45,-1.76217139591459,-1,0.603147300000046,0.0299850999999762,0.886983800000053,0.0172913381551982,0
10,2,304,180,18,-45,-1.76217139591459,-1,1.13510689999998,0.0299721000001227,0.178752099999883,0.0172913381551982,1
26,2,305,500,50,-45,-1.76217139591459,-1,0.4872163,0.0299884999999449,0.507016999999905,0.0172913381551982,1
48,2,306,940,94,45,-1.76217139591459,1,1.14515929999993,0.0299271999999746,0.937101400000074,0.0172913381551982,1
33,3,307,640,64,45,-1.76217139591459,1,0.656338100000085,0.0299882000001617,0.641292399999884,0.0172913381551982,1
51,3,308,1000,100,-45,-1.76217139591459,-1,0.540252400000099,0.0298779177023789,0.997486582297597,0.0172913381551982,1
20,3,309,380,38,45,-1.76217139591459,1,0.562685300000112,0.0299944000000778,0.383480100000043,0.0172913381551982,1
14,3,310,260,26,-45,-1.76217139591459,-1,0.700479600000108,0.0299769999999171,0.261369900000091,0.0172913381551982,1
48,3,311,940,94,45,-1.76217139591459,1,0.610166400000026,0.0299396000000343,0.943746099999998,0.0172913381551982,1
26,3,312,500,50,45,-1.76217139591459,1,0.560419299999921,0.0298919765541541,0.497912623445927,0.0172913381551982,1
27,3,313,520,52,45,-1.76217139591459,1,0.692432700000154,0.0299681000001328,0.52584539999998,0.0172913381551982,1
42,3,314,820,82,45,-1.76217139591459,1,0.666743499999939,0.0299133000000893,0.823310100000072,0.0172913381551982,1
51,3,315,1000,100,45,-1.76217139591459,1,0.53434029999994,0.0299224000000322,1.00360490000003,0.0172913381551982,1
7,3,316,120,12,-45,-1.76217139591459,-1,0.586358000000018,0.0298771000000215,0.119982599999958,0.0172913381551982,1
25,3,317,480,48,-45,-1.76217139591459,-1,0.464305100000047,0.0301446999999371,0.481489699999884,0.0172913381551982,1
35,3,318,680,68,45,-1.76217139591459,1,0.630309000000125,0.0299264999998741,0.68376360000002,0.0172913381551982,1
33,3,319,640,64,45,-1.76217139591459,-1,0.674243700000034,0.0300108999999793,0.639686199999915,0.0172913381551982,0
41,3,320,800,80,-45,-1.76217139591459,1,0.910184399999935,0.0299631000000318,0.803804599999921,0.0172913381551982,0
25,3,321,480,48,-45,-1.76217139591459,-1,1.45215640000015,0.0299009999998816,0.485820900000135,0.0172913381551982,1
26,3,322,500,50,-45,-1.76217139591459,1,0.728207600000133,0.0299629999999524,0.505895499999951,0.0172913381551982,0
43,3,323,840,84,-45,-1.76217139591459,-1,0.696178400000008,0.0299835000000712,0.841827599999988,0.0172913381551982,1
23,3,324,440,44,45,-1.76217139591459,-1,0.683613599999944,0.0298824906217305,0.438112009378301,0.0172913381551982,0
13,3,325,240,24,-45,-1.76217139591459,-1,0.656035400000064,0.0299890999999661,0.242191399999911,0.0172913381551982,1
21,3,326,400,40,-45,-1.76217139591459,-1,0.547551199999816,0.0299027400944851,0.398111259905363,0.0172913381551982,1
31,3,327,600,60,45,-1.76217139591459,1,0.537978700000167,0.0298935000000711,0.600117899999987,0.0172913381551982,1
12,3,328,220,22,-45,-1.76217139591459,-1,0.791831499999944,0.0298973999999816,0.218117099999972,0.0172913381551982,1
28,3,329,540,54,45,-1.76217139591459,1,0.566116100000045,0.0299761999999646,0.540332799999987,0.0172913381551982,1
49,3,330,960,96,-45,-1.76217139591459,-1,0.691872699999976,0.0298563000001195,0.958190899999863,0.0172913381551982,1
6,3,331,100,10,-45,-1.76217139591459,-1,0.557834700000058,0.0299724999999853,0.100096199999825,0.0172913381551982,1
18,3,332,340,34,-45,-1.76217139591459,-1,0.425879399999985,0.0299488999999085,0.344307800000024,0.0172913381551982,1
13,3,333,240,24,45,-1.76217139591459,1,0.563250100000005,0.0299179083242507,0.238415391675744,0.0172913381551982,1
14,3,334,260,26,45,-1.76217139591459,1,0.519720300000017,0.0299381999998332,0.266472400000112,0.0172913381551982,1
32,3,335,620,62,45,-1.76217139591459,1,0.743741999999884,0.029870630716232,0.618694269283878,0.0172913381551982,1
38,3,336,740,74,-45,-1.76217139591459,-1,0.477291599999944,0.0300052000000051,0.740153899999996,0.0172913381551982,1
5,3,337,80,8,45,-1.76217139591459,1,0.529778899999883,0.0299547000001894,0.0802533999999469,0.0172913381551982,1
5,3,338,80,8,45,-1.76217139591459,1,0.493562099999963,0.0298667999998088,0.0843873999999687,0.0172913381551982,1
24,3,339,460,46,-45,-1.76217139591459,1,0.623593100000107,0.0299433000000136,0.466383000000178,0.0172913381551982,0
34,3,340,660,66,-45,-1.76217139591459,-1,0.66530970000008,0.0299559999998564,0.664390099999991,0.0172913381551982,1
49,3,341,960,96,45,-1.76217139591459,1,0.575472999999874,0.0300575999999637,0.962372899999991,0.0172913381551982,1
4,3,342,60,6,45,-1.76217139591459,1,0.675536599999987,0.0299678000001222,0.0623596000000362,0.0172913381551982,1
17,3,343,320,32,45,-1.76217139591459,1,0.731448700000101,0.0299715999999535,0.326720900000055,0.0172913381551982,1
43,3,344,840,84,-45,-1.76217139591459,1,0.535373099999788,0.0300059999999576,0.842513199999985,0.0172913381551982,0
1,3,345,0,0,-45,-1.76217139591459,1,0.60731439999995,0.0299562000000151,0.00274919999992562,0.0172913381551982,0
34,3,346,660,66,45,-1.76217139591459,1,0.491019999999935,0.0300872000000254,0.662639000000127,0.0172913381551982,1
36,3,347,700,70,45,-1.76217139591459,1,0.553445499999953,0.0297832859323535,0.696941414067851,0.0172913381551982,1
10,3,348,180,18,-45,-1.76217139591459,1,0.828961299999946,0.0300156999999217,0.180826400000115,0.0172913381551982,0
41,3,349,800,80,-45,-1.76217139591459,-1,1.08306190000008,0.0299761999999646,0.806649900000139,0.0172913381551982,1
33,3,350,640,64,45,-1.76217139591459,1,0.515362600000117,0.0299320260266995,0.63903157397317,0.0172913381551982,1
31,3,351,600,60,45,-1.76217139591459,1,0.581370499999821,0.029975800000102,0.604904799999986,0.0172913381551982,1
10,3,352,180,18,45,-1.76217139591459,1,0.551490199999989,0.0299476000000141,0.186587099999997,0.0172913381551982,1
36,3,353,700,70,-45,-1.76217139591459,-1,0.692912500000148,0.0299695999999585,0.700629700000036,0.0172913381551982,1
30,3,354,580,58,-45,-1.76217139591459,1,0.636939400000074,0.0299946000000091,0.580673499999875,0.0172913381551982,0
10,3,355,180,18,45,-1.76217139591459,1,0.649098099999946,0.0299766999999065,0.184602200000199,0.0172913381551982,1
25,3,356,480,48,-45,-1.76217139591459,-1,0.485075900000083,0.02988858593244,0.476949514067655,0.0172913381551982,1
21,3,357,400,40,45,-1.76217139591459,1,0.509076100000129,0.0299847000001137,0.40487609999991,0.0172913381551982,1
34,3,358,660,66,45,-1.76217139591459,-1,0.65308970000001,0.0300242000000708,0.66084909999995,0.0172913381551982,0
48,3,359,940,94,45,-1.76217139591459,1,0.388647400000082,0.0299634999998943,0.941164500000014,0.0172913381551982,1
19,3,360,360,36,-45,-1.76217139591459,1,0.472976799999969,0.0300124000000324,0.361133399999972,0.0172913381551982,0
19,3,361,360,36,-45,-1.76217139591459,-1,0.488926799999945,0.0299629000001005,0.360909199999924,0.0172913381551982,1
4,3,362,60,6,-45,-1.76217139591459,-1,1.59315149999998,0.0299761000001126,0.0571036999999706,0.0172913381551982,1
26,3,363,500,50,45,-1.76217139591459,1,0.528846799999883,0.0298529130134284,0.497384486986675,0.0172913381551982,1
12,3,364,220,22,45,-1.76217139591459,1,0.531084399999827,0.0299107000000731,0.223172700000077,0.0172913381551982,1
17,3,365,320,32,-45,-1.76217139591459,-1,0.608561200000167,0.0299133000000893,0.321143299999903,0.0172913381551982,1
9,3,366,160,16,45,-1.76217139591459,-1,0.59483020000016,0.0298766177024845,0.159190782297628,0.0172913381551982,0
47,3,367,920,92,45,-1.76217139591459,1,0.474551000000019,0.0300027000000682,0.919430899999952,0.0172913381551982,1
20,3,368,380,38,-45,-1.76217139591459,1,0.518395800000008,0.0298961317703288,0.379407568229681,0.0172913381551982,0
15,3,369,280,28,45,-1.76217139591459,-1,0.698484400000098,0.0299525000000358,0.279096199999913,0.0172913381551982,0
50,3,370,980,98,-45,-1.76217139591459,1,1.06878150000011,0.0300503999999364,0.981227500000159,0.0172913381551982,0
18,3,371,340,34,45,-1.76217139591459,-1,1.31278429999998,0.0298998223918261,0.337702177608207,0.0172913381551982,0
44,3,372,860,86,45,-1.76217139591459,1,0.840580699999919,0.0298643177025042,0.857510882297447,0.0172913381551982,1
29,3,373,560,56,45,-1.76217139591459,1,0.78056000000015,0.0299406999999974,0.565565499999821,0.0172913381551982,1
11,3,374,200,20,-45,-1.76217139591459,-1,0.620413699999972,0.0299043577970224,0.197546842202883,0.0172913381551982,1
4,3,375,60,6,-45,-1.76217139591459,-1,0.856720999999879,0.0300065000001268,0.0572528999998667,0.0172913381551982,1
44,3,376,860,86,-45,-1.76217139591459,1,0.722537800000055,0.0299594000000525,0.863489400000162,0.0172913381551982,0
51,3,377,1000,100,45,-1.76217139591459,1,0.504515000000083,0.0299567000001844,1.00173419999987,0.0172913381551982,1
17,3,378,320,32,45,-1.76217139591459,1,0.498374899999817,0.0299250000000484,0.319733000000042,0.0172913381551982,1
3,3,379,40,4,-45,-1.76217139591459,-1,0.742350299999998,0.0299503999999615,0.0434198999998898,0.0172913381551982,1
45,3,380,880,88,45,-1.76217139591459,1,0.65992140000003,0.0299377765541067,0.877901023445929,0.0172913381551982,1
11,3,381,200,20,-45,-1.76217139591459,1,0.644125199999962,0.0299411000000873,0.205476500000032,0.0172913381551982,0
3,3,382,40,4,-45,-1.76217139591459,-1,0.696447699999908,0.0299678999999742,0.0415444000000207,0.0172913381551982,1
46,3,383,900,90,45,-1.76217139591459,1,0.507976099999951,0.0300151999999798,0.901764999999841,0.0172913381551982,1
42,3,384,820,82,-45,-1.76217139591459,1,0.526168899999902,0.0299265223916336,0.819792877608279,0.0172913381551982,0
22,3,385,420,42,45,-1.76217139591459,1,0.664395500000182,0.0299211000001378,0.425943999999845,0.0172913381551982,1
9,3,386,160,16,-45,-1.76217139591459,-1,0.578239100000019,0.029899000000114,0.160138499999903,0.0172913381551982,1
23,3,387,440,44,45,-1.76217139591459,-1,0.457774799999925,0.0299403494730086,0.439813050526936,0.0172913381551982,0
18,3,388,340,34,45,-1.76217139591459,-1,0.556193300000132,0.0299938999999085,0.341771000000108,0.0172913381551982,0
8,3,389,140,14,45,-1.76217139591459,1,0.616342099999883,0.0298786000000746,0.138219599999957,0.0172913381551982,1
16,3,390,300,30,45,-1.76217139591459,-1,0.406156500000179,0.0300099999999475,0.299778600000081,0.0172913381551982,0
50,3,391,980,98,-45,-1.76217139591459,-1,0.478659200000038,0.0299404000002141,0.979921399999967,0.0172913381551982,1
22,3,392,420,42,-45,-1.76217139591459,-1,0.463492099999939,0.0299059130136357,0.418053486986537,0.0172913381551982,1
16,3,393,300,30,-45,-1.76217139591459,-1,0.470005399999991,0.0300471000000471,0.300137100000029,0.0172913381551982,1
32,3,394,620,62,-45,-1.76217139591459,-1,0.423920100000032,0.0298847588512672,0.618361241148705,0.0172913381551982,1
7,3,395,120,12,-45,-1.76217139591459,-1,0.56806900000015,0.0299380999999812,0.122235300000057,0.0172913381551982,1
8,3,396,140,14,45,-1.76217139591459,-1,0.399867999999969,0.0300237000001289,0.145987099999957,0.0172913381551982,0
5,3,397,80,8,-45,-1.76217139591459,-1,0.514004500000055,0.0299492999999984,0.080259599999863,0.0172913381551982,1
20,3,398,380,38,45,-1.76217139591459,-1,0.496060300000181,0.0300517999999101,0.385806000000002,0.0172913381551982,0
38,3,399,740,74,-45,-1.76217139591459,1,0.383743699999968,0.0299411989458349,0.738448601054188,0.0172913381551982,0
32,3,400,620,62,-45,-1.76217139591459,-1,0.501754500000061,0.0298950541621252,0.62047434583792,0.0172913381551982,1
15,3,401,280,28,45,-1.76217139591459,1,0.58179129999985,0.0300401000001784,0.284091199999921,0.0172913381551982,1
31,3,402,600,60,-45,-1.76217139591459,-1,0.667749500000127,0.029882817702628,0.598551482297353,0.0172913381551982,1
29,3,403,560,56,45,-1.76217139591459,1,0.60549119999996,0.0299853999999868,0.564455299999963,0.0172913381551982,1
49,3,404,960,96,45,-1.76217139591459,1,0.771666399999958,0.0298876635404213,0.958216436459452,0.0172913381551982,1
13,3,405,240,24,45,-1.76217139591459,1,0.555793199999925,0.0299640000000636,0.246366999999964,0.0172913381551982,1
19,3,406,360,36,45,-1.76217139591459,1,0.761650700000018,0.0298285177025264,0.360462882297497,0.0172913381551982,1
30,3,407,580,58,-45,-1.76217139591459,1,1.17767430000004,0.0299843000000237,0.584333000000015,0.0172913381551982,0
1,3,408,0,0,-45,-1.76217139591459,1,0.557440199999974,0.0300987999999052,0.00425810000001547,0.0172913381551982,0
43,3,409,840,84,-45,-1.76217139591459,1,0.647359099999903,0.0300240999999914,0.842474100000118,0.0172913381551982,0
41,3,410,800,80,-45,-1.76217139591459,1,0.593564599999809,0.0299761999999646,0.800658899999917,0.0172913381551982,0
46,3,411,900,90,-45,-1.76217139591459,-1,0.729285699999991,0.029967299999953,0.904510400000163,0.0172913381551982,1
45,3,412,880,88,-45,-1.76217139591459,1,0.987596999999823,0.0299605000000156,0.886575300000004,0.0172913381551982,0
24,3,413,460,46,-45,-1.76217139591459,-1,0.629395500000101,0.0299148000001423,0.460377599999902,0.0172913381551982,1
29,3,414,560,56,-45,-1.76217139591459,1,0.497618999999986,0.0298686999999518,0.560559799999965,0.0172913381551982,0
44,3,415,860,86,-45,-1.76217139591459,1,0.567443599999933,0.0298878999999488,0.858685799999876,0.0172913381551982,0
28,3,416,540,54,45,-1.76217139591459,1,0.423558499999899,0.0299072999998771,0.538960100000168,0.0172913381551982,1
23,3,417,440,44,45,-1.76217139591459,1,0.393186699999887,0.0300275000001875,0.440671399999928,0.0172913381551982,1
36,3,418,700,70,45,-1.76217139591459,1,0.495241100000158,0.0300058999998782,0.706751700000041,0.0172913381551982,1
27,3,419,520,52,-45,-1.76217139591459,1,0.61909629999991,0.0299175130135154,0.518809486986584,0.0172913381551982,0
6,3,420,100,10,45,-1.76217139591459,1,0.529010900000003,0.0299165999999786,0.097012100000029,0.0172913381551982,1
2,3,421,20,2,-45,-1.76217139591459,1,0.536923099999967,0.0299878000000717,0.0249432999999044,0.0172913381551982,0
21,3,422,400,40,45,-1.76217139591459,1,0.554871300000059,0.0299783999998908,0.407033899999988,0.0172913381551982,1
22,3,423,420,42,45,-1.76217139591459,-1,0.678755199999841,0.0299790999999914,0.426806700000043,0.0172913381551982,0
8,3,424,140,14,45,-1.76217139591459,1,0.566731600000139,0.0298584859322091,0.138998614067759,0.0172913381551982,1
40,3,425,780,78,45,-1.76217139591459,1,1.04284989999996,0.0299160999998094,0.782840100000158,0.0172913381551982,1
37,3,426,720,72,-45,-1.76217139591459,1,1.11901990000001,0.0299293000000489,0.722970600000053,0.0172913381551982,0
9,3,427,160,16,-45,-1.76217139591459,1,4.22301670000002,0.0299609999999575,0.162972299999865,0.0172913381551982,0
11,3,428,200,20,-45,-1.76217139591459,-1,0.677027999999837,0.0299648999998681,0.205123299999968,0.0172913381551982,1
40,3,429,780,78,-45,-1.76217139591459,-1,0.722741000000042,0.0300076999999419,0.783397300000161,0.0172913381551982,1
12,3,430,220,22,45,-1.76217139591459,1,0.752862999999934,0.029944500000056,0.225231199999826,0.0172913381551982,1
24,3,431,460,46,-45,-1.76217139591459,-1,0.932461099999955,0.0299557999999251,0.461439800000107,0.0172913381551982,1
35,3,432,680,68,45,-1.76217139591459,1,0.600417599999901,0.0300054999997883,0.681162700000186,0.0172913381551982,1
2,3,433,20,2,45,-1.76217139591459,1,0.794540799999822,0.0299680999999055,0.023074700000052,0.0172913381551982,1
39,3,434,760,76,-45,-1.76217139591459,1,0.582656400000133,0.0299734000000171,0.763260899999977,0.0172913381551982,0
47,3,435,920,92,-45,-1.76217139591459,-1,0.346485999999913,0.0298893942565428,0.919352505743518,0.0172913381551982,1
40,3,436,780,78,45,-1.76217139591459,1,0.632666399999835,0.029907699999967,0.777419400000099,0.0172913381551982,1
45,3,437,880,88,-45,-1.76217139591459,-1,0.620700499999884,0.0298874000000069,0.885603100000026,0.0172913381551982,1
48,3,438,940,94,45,-1.76217139591459,1,0.932167199999867,0.0299775999999383,0.941354199999978,0.0172913381551982,1
15,3,439,280,28,45,-1.76217139591459,1,0.680465600000161,0.0299677999998949,0.281654500000059,0.0172913381551982,1
7,3,440,120,12,45,-1.76217139591459,1,0.694251099999974,0.0299867000001086,0.123483399999941,0.0172913381551982,1
35,3,441,680,68,-45,-1.76217139591459,-1,0.616550299999972,0.0299334999999701,0.681741800000054,0.0172913381551982,1
38,3,442,740,74,45,-1.76217139591459,1,0.590597800000069,0.0298362953108153,0.739356304689181,0.0172913381551982,1
46,3,443,900,90,45,-1.76217139591459,1,0.536094300000059,0.0299663000000692,0.905543899999884,0.0172913381551982,1
14,3,444,260,26,-45,-1.76217139591459,1,0.896417800000108,0.0298724317704,0.257641068229759,0.0172913381551982,0
28,3,445,540,54,-45,-1.76217139591459,-1,0.565982800000029,0.029904100000067,0.540064999999913,0.0172913381551982,1
50,3,446,980,98,-45,-1.76217139591459,1,0.574309500000027,0.029970399999911,0.979949100000113,0.0172913381551982,0
47,3,447,920,92,45,-1.76217139591459,1,0.824375600000167,0.0299457999999504,0.921635800000104,0.0172913381551982,1
1,3,448,0,0,-45,-1.76217139591459,-1,0.67052549999994,0.02997930000015,0.00367659999983516,0.0172913381551982,1
37,3,449,720,72,45,-1.76217139591459,1,0.571978700000045,0.030029999999897,0.725616800000125,0.0172913381551982,1
30,3,450,580,58,45,-1.76217139591459,1,0.606316600000127,0.0300133000000642,0.579857499999889,0.0172913381551982,1
39,3,451,760,76,45,-1.76217139591459,1,0.792245500000035,0.02993709999987,0.761656800000083,0.0172913381551982,1
6,3,452,100,10,-45,-1.76217139591459,1,0.829905199999985,0.0300741999999445,0.0996886000000359,0.0172913381551982,0
37,3,453,720,72,-45,-1.76217139591459,-1,0.74990200000002,0.0299229999998261,0.723800299999994,0.0172913381551982,1
42,3,454,820,82,45,-1.76217139591459,1,0.872138599999971,0.0299328999999489,0.826144300000124,0.0172913381551982,1
3,3,455,40,4,45,-1.76217139591459,-1,0.789890199999945,0.0300144999998793,0.0440582000001086,0.0172913381551982,0
2,3,456,20,2,-45,-1.76217139591459,-1,0.863873999999896,0.0299746000000596,0.0178346000000147,0.0172913381551982,1
16,3,457,300,30,-45,-1.76217139591459,-1,0.615859199999932,0.0298536718646574,0.298352128135321,0.0172913381551982,1
27,3,458,520,52,-45,-1.76217139591459,-1,0.504061999999976,0.0300064000000475,0.521965800000089,0.0172913381551982,1
39,3,459,760,76,-45,-1.76217139591459,-1,0.486079400000108,0.0299975999998878,0.764331800000036,0.0172913381551982,1
38,4,460,740,74,-45,-1.76217139591459,1,0.589987699999938,0.0300207000000228,0.739529599999969,0.0172913381551982,0
28,4,461,540,54,45,-1.76217139591459,-1,0.855865799999947,0.0299379812431653,0.537854718756762,0.0172913381551982,0
26,4,462,500,50,-45,-1.76217139591459,-1,0.508399300000065,0.0299958999999035,0.501934899999924,0.0172913381551982,1
16,4,463,300,30,45,-1.76217139591459,-1,0.390418499999896,0.0300073999999313,0.299534500000163,0.0172913381551982,0
34,4,464,660,66,-45,-1.76217139591459,-1,0.382315800000015,0.0300427999998192,0.659931800000095,0.0172913381551982,1
36,4,465,700,70,-45,-1.76217139591459,-1,0.368185799999992,0.0299990999999409,0.705991300000051,0.0172913381551982,1
6,4,466,100,10,-45,-1.76217139591459,-1,0.556183300000157,0.0300400999999511,0.101704499999869,0.0172913381551982,1
43,4,467,840,84,-45,-1.76217139591459,-1,0.380019299999958,0.0298996447836544,0.838126155216287,0.0172913381551982,1
32,4,468,620,62,-45,-1.76217139591459,-1,0.404280100000051,0.0299179999999524,0.622053099999903,0.0172913381551982,1
5,4,469,80,8,-45,-1.76217139591459,-1,0.447991799999954,0.02993749999996,0.0820246000000679,0.0172913381551982,1
39,4,470,760,76,45,-1.76217139591459,-1,0.379807000000028,0.0299221000000216,0.757824699999901,0.0172913381551982,0
46,4,471,900,90,45,-1.76217139591459,1,0.555762299999969,0.029993500000046,0.901816899999858,0.0172913381551982,1
40,4,472,780,78,45,-1.76217139591459,1,0.548084700000118,0.0299276999999165,0.782143899999937,0.0172913381551982,1
37,4,473,720,72,45,-1.76217139591459,1,0.512184899999966,0.0300197999999909,0.722116199999846,0.0172913381551982,1
42,4,474,820,82,-45,-1.76217139591459,-1,0.586008799999945,0.0299709000000803,0.823873599999843,0.0172913381551982,1
11,4,475,200,20,-45,-1.76217139591459,-1,0.746272500000032,0.0299872000000505,0.199650199999951,0.0172913381551982,1
23,4,476,440,44,-45,-1.76217139591459,-1,0.56365720000008,0.0299813999999969,0.44586819999995,0.0172913381551982,1
35,4,477,680,68,-45,-1.76217139591459,1,0.579640199999858,0.0299293000000489,0.686012699999992,0.0172913381551982,0
48,4,478,940,94,-45,-1.76217139591459,1,0.657935599999973,0.0300088999999844,0.944275300000072,0.0172913381551982,0
27,4,479,520,52,45,-1.76217139591459,1,0.587707199999841,0.0299249447839429,0.518157155216159,0.0172913381551982,1
12,4,480,220,22,-45,-1.76217139591459,1,0.711306200000081,0.0299236541618484,0.218460045838128,0.0172913381551982,0
10,4,481,180,18,-45,-1.76217139591459,1,0.653587600000037,0.0300088999999844,0.180304200000137,0.0172913381551982,0
14,4,482,260,26,45,-1.76217139591459,-1,0.623616399999946,0.0299215036350233,0.25832949636515,0.0172913381551982,0
20,4,483,380,38,45,-1.76217139591459,1,0.54979040000012,0.0299603999999363,0.380166700000018,0.0172913381551982,1
14,4,484,260,26,45,-1.76217139591459,1,0.639649100000042,0.0298762671757231,0.258315632824406,0.0172913381551982,1
19,4,485,360,36,45,-1.76217139591459,1,0.603599699999904,0.0299437400944953,0.358302359905565,0.0172913381551982,1
9,4,486,160,16,45,-1.76217139591459,1,0.603456600000072,0.0299490000002152,0.166239199999836,0.0172913381551982,1
29,4,487,560,56,-45,-1.76217139591459,1,0.467407600000115,0.0298775000001115,0.558356400000093,0.0172913381551982,0
10,4,488,180,18,45,-1.76217139591459,1,0.601667800000087,0.0299885000001723,0.184331400000019,0.0172913381551982,1
26,4,489,500,50,-45,-1.76217139591459,1,0.585753600000089,0.0299528999998984,0.504273499999954,0.0172913381551982,0
1,4,490,0,0,45,-1.76217139591459,1,0.591746199999989,0.0299497999999403,0.00203340000007302,0.0172913381551982,1
2,4,491,20,2,45,-1.76217139591459,1,0.463777100000016,0.0300605999998425,0.0184437000000344,0.0172913381551982,1
5,4,492,80,8,45,-1.76217139591459,1,0.453602300000057,0.0299054000001888,0.0764250999998239,0.0172913381551982,1
45,4,493,880,88,45,-1.76217139591459,1,0.49150799999984,0.0299690999997893,0.886314100000163,0.0172913381551982,1
44,4,494,860,86,-45,-1.76217139591459,-1,0.515676500000154,0.0300551000000269,0.862607399999888,0.0172913381551982,1
30,4,495,580,58,-45,-1.76217139591459,1,0.455257000000074,0.0299545000000307,0.586699899999985,0.0172913381551982,0
12,4,496,220,22,45,-1.76217139591459,1,0.495215700000017,0.0299823000000288,0.226380699999936,0.0172913381551982,1
50,4,497,980,98,-45,-1.76217139591459,1,0.511333799999875,0.0299142989456413,0.978757901054223,0.0172913381551982,0
29,4,498,560,56,-45,-1.76217139591459,-1,0.493454000000156,0.0299371999999494,0.564460400000144,0.0172913381551982,1
48,4,499,940,94,45,-1.76217139591459,1,1.09500519999983,0.0300073999999313,0.93859509999993,0.0172913381551982,1
37,4,500,720,72,-45,-1.76217139591459,-1,0.562951899999916,0.0299449999997705,0.718703400000322,0.0172913381551982,1
7,4,501,120,12,-45,-1.76217139591459,-1,0.600993199999721,0.0300108999999793,0.120542000000114,0.0172913381551982,1
36,4,502,700,70,45,-1.76217139591459,1,0.52904609999996,0.0299454999999398,0.704705099999956,0.0172913381551982,1
41,4,503,800,80,-45,-1.76217139591459,1,1.08299050000005,0.0300222999999278,0.806879000000208,0.0172913381551982,0
31,4,504,600,60,45,-1.76217139591459,1,0.514947900000152,0.0299608000000262,0.606522099999893,0.0172913381551982,1
13,4,505,240,24,45,-1.76217139591459,1,0.561240699999871,0.0299366000003829,0.240593199999694,0.0172913381551982,1
34,4,506,660,66,-45,-1.76217139591459,1,0.652885500000139,0.0299940999998398,0.660787100000107,0.0172913381551982,0
8,4,507,140,14,-45,-1.76217139591459,-1,0.86718860000019,0.0300215000002026,0.14274179999984,0.0172913381551982,1
3,4,508,40,4,-45,-1.76217139591459,-1,1.03135090000023,0.0299810999999863,0.0430138000001534,0.0172913381551982,1
39,4,509,760,76,-45,-1.76217139591459,1,7.22271080000019,0.0299880999996276,0.763138300000264,0.0172913381551982,0
18,4,510,340,34,45,-1.76217139591459,1,0.778871900000013,0.0299755999999434,0.343041500000254,0.0172913381551982,1
32,4,511,620,62,-45,-1.76217139591459,1,0.612935999999991,0.029950000000099,0.621038100000078,0.0172913381551982,0
47,4,512,920,92,45,-1.76217139591459,1,0.566738800000167,0.0299253000002864,0.923363599999902,0.0172913381551982,1
45,4,513,880,88,45,-1.76217139591459,1,0.466894500000308,0.0298383270810518,0.879370772918719,0.0172913381551982,1
23,4,514,440,44,45,-1.76217139591459,1,0.594901800000116,0.0300004999999146,0.447135500000059,0.0172913381551982,1
27,4,515,520,52,-45,-1.76217139591459,1,0.532429199999569,0.0299794999996266,0.525455300000431,0.0172913381551982,0
21,4,516,400,40,45,-1.76217139591459,1,0.668560200000229,0.0299153000000842,0.405216999999993,0.0172913381551982,1
42,4,517,820,82,45,-1.76217139591459,1,0.504743499999677,0.0300557000000481,0.825518199999806,0.0172913381551982,1
42,4,518,820,82,-45,-1.76217139591459,1,0.464570700000422,0.0298907083242739,0.817418491675653,0.0172913381551982,0
49,4,519,960,96,45,-1.76217139591459,1,0.464576900000338,0.029978100000335,0.961670700000013,0.0172913381551982,1
22,4,520,420,42,45,-1.76217139591459,1,2.42478750000009,0.0298730999998043,0.425377100000333,0.0172913381551982,1
44,4,521,860,86,45,-1.76217139591459,1,0.66016239999999,0.0300574000002598,0.86144639999975,0.0172913381551982,1
49,4,522,960,96,-45,-1.76217139591459,-1,0.564295599999696,0.0298213953110462,0.957894704688897,0.0172913381551982,1
1,4,523,0,0,45,-1.76217139591459,-1,2.98819009999988,0.0301142000002983,0.00564199999962511,0.0172913381551982,0
48,4,524,940,94,45,-1.76217139591459,1,0.724385499999698,0.0299927999999454,0.941807800000333,0.0172913381551982,1
28,4,525,540,54,-45,-1.76217139591459,-1,0.628228599999602,0.0300096999999369,0.541576699999951,0.0172913381551982,1
20,4,526,380,38,-45,-1.76217139591459,-1,1.02804590000005,0.0299295999998321,0.381880299999921,0.0172913381551982,1
19,4,527,360,36,45,-1.76217139591459,1,1.92804939999996,0.0299927000000935,0.361730999999963,0.0172913381551982,1
25,4,528,480,48,-45,-1.76217139591459,-1,0.604456300000038,0.0300136999999268,0.485751200000323,0.0172913381551982,1
18,4,529,340,34,45,-1.76217139591459,-1,0.544170699999995,0.0298488859325516,0.337889914067546,0.0172913381551982,0
37,4,530,720,72,45,-1.76217139591459,1,0.80211670000017,0.0299741000003451,0.719919299999674,0.0172913381551982,1
46,4,531,900,90,-45,-1.76217139591459,-1,0.859876099999838,0.02988490000007,0.902119899999889,0.0172913381551982,1
27,4,532,520,52,-45,-1.76217139591459,1,0.630182100000184,0.0299685999998474,0.524050299999999,0.0172913381551982,0
45,4,533,880,88,45,-1.76217139591459,1,0.611767599999894,0.0298377671756498,0.878004132824117,0.0172913381551982,1
5,4,534,80,8,45,-1.76217139591459,1,0.733960000000025,0.0299528999998984,0.0838136000002123,0.0172913381551982,1
31,4,535,600,60,45,-1.76217139591459,1,0.537626799999998,0.0299837999996271,0.59996190000038,0.0172913381551982,1
4,4,536,60,6,45,-1.76217139591459,1,0.614060400000199,0.029984499999955,0.0601753000000826,0.0172913381551982,1
33,4,537,640,64,-45,-1.76217139591459,-1,0.691565200000241,0.0298606942565129,0.63843800574341,0.0172913381551982,1
51,4,538,1000,100,-45,-1.76217139591459,-1,0.762115700000322,0.0299770000001445,1.00000180000006,0.0172913381551982,1
38,4,539,740,74,45,-1.76217139591459,1,0.729523599999993,0.0299906000000192,0.744306399999914,0.0172913381551982,1
35,4,540,680,68,-45,-1.76217139591459,1,0.691842899999756,0.0299419999996644,0.68635200000017,0.0172913381551982,0
11,4,541,200,20,-45,-1.76217139591459,1,2.03949049999983,0.0299948000001677,0.202353099999982,0.0172913381551982,0
10,4,542,180,18,-45,-1.76217139591459,-1,0.551912399999765,0.029924000000392,0.186097399999653,0.0172913381551982,1
25,4,543,480,48,45,-1.76217139591459,-1,0.673742500000117,0.0300418000001628,0.480162400000154,0.0172913381551982,0
32,4,544,620,62,45,-1.76217139591459,1,0.515465100000256,0.029928800000107,0.622159599999577,0.0172913381551982,1
15,4,545,280,28,-45,-1.76217139591459,1,0.519748499999878,0.0299144999999044,0.282371700000112,0.0172913381551982,0
29,4,546,560,56,45,-1.76217139591459,-1,0.531538100000034,0.029942571864467,0.558275828135265,0.0172913381551982,0
22,4,547,420,42,45,-1.76217139591459,1,0.553356699999767,0.0299662000002172,0.4242220000001,0.0172913381551982,1
28,4,548,540,54,45,-1.76217139591459,1,0.597589200000129,0.0299801999999545,0.540584099999705,0.0172913381551982,1
19,4,549,360,36,-45,-1.76217139591459,-1,0.615572400000019,0.0299879999997756,0.362588200000118,0.0172913381551982,1
24,4,550,460,46,45,-1.76217139591459,1,0.49760409999999,0.0299974999998085,0.464279700000134,0.0172913381551982,1
24,4,551,460,46,-45,-1.76217139591459,1,0.593151600000056,0.0300116000003072,0.464252099999612,0.0172913381551982,0
17,4,552,320,32,-45,-1.76217139591459,-1,0.561501500000304,0.0299759999998059,0.320380199999818,0.0172913381551982,1
47,4,553,920,92,-45,-1.76217139591459,1,0.743518499999936,0.0300010000000839,0.922690500000044,0.0172913381551982,0
13,4,554,240,24,45,-1.76217139591459,1,0.571367499999724,0.0300834999998187,0.246608699999797,0.0172913381551982,1
21,4,555,400,40,45,-1.76217139591459,1,0.54351859999997,0.0299608999998782,0.402492300000176,0.0172913381551982,1
40,4,556,780,78,45,-1.76217139591459,1,0.965214399999695,0.030043399999613,0.780761400000301,0.0172913381551982,1
22,4,557,420,42,45,-1.76217139591459,1,0.537367500000073,0.0299697000000378,0.424548999999843,0.0172913381551982,1
4,4,558,60,6,45,-1.76217139591459,1,0.697460100000171,0.0300231999999596,0.0567390999999589,0.0172913381551982,1
15,4,559,280,28,-45,-1.76217139591459,1,0.59540109999989,0.0299721000001227,0.286658999999872,0.0172913381551982,0
16,4,560,300,30,-45,-1.76217139591459,-1,0.529277999999977,0.030038500000046,0.304935399999977,0.0172913381551982,1
41,4,561,800,80,45,-1.76217139591459,-1,0.731110499999886,0.0299567000001844,0.806766199999856,0.0172913381551982,0
16,4,562,300,30,45,-1.76217139591459,1,0.563409400000182,0.0298966000000291,0.302769800000078,0.0172913381551982,1
17,4,563,320,32,-45,-1.76217139591459,-1,0.575161899999785,0.0300559000002067,0.322864499999923,0.0172913381551982,1
15,4,564,280,28,-45,-1.76217139591459,1,0.691190200000165,0.0300111999999899,0.286682599999949,0.0172913381551982,0
2,4,565,20,2,-45,-1.76217139591459,-1,0.749001300000145,0.029975800000102,0.0210625999998229,0.0172913381551982,1
6,4,566,100,10,45,-1.76217139591459,1,0.670988599999873,0.0298870999999963,0.0988188000001173,0.0172913381551982,1
49,4,567,960,96,45,-1.76217139591459,1,0.548605800000132,0.0298985036351951,0.957193396364801,0.0172913381551982,1
13,4,568,240,24,-45,-1.76217139591459,1,0.58105599999999,0.0298682223919968,0.236991377607865,0.0172913381551982,0
51,4,569,1000,100,45,-1.76217139591459,1,0.567036899999948,0.0299832000000606,1.00312620000022,0.0172913381551982,1
50,4,570,980,98,-45,-1.76217139591459,-1,0.554742100000112,0.0299798999999439,0.9830422,0.0172913381551982,1
33,4,571,640,64,45,-1.76217139591459,1,0.709094699999696,0.030045599999994,0.6368923,0.0172913381551982,1
33,4,572,640,64,45,-1.76217139591459,1,0.68881650000003,0.0300120000001698,0.641220900000008,0.0172913381551982,1
17,4,573,320,32,45,-1.76217139591459,1,0.62502429999995,0.0299764000001232,0.321068100000048,0.0172913381551982,1
44,4,574,860,86,-45,-1.76217139591459,1,0.590847199999644,0.0299062999997659,0.867165800000294,0.0172913381551982,0
26,4,575,500,50,-45,-1.76217139591459,-1,0.745022600000084,0.0299714000002496,0.505263399999876,0.0172913381551982,1
23,4,576,440,44,-45,-1.76217139591459,1,0.824646700000358,0.0299294999999802,0.441334799999822,0.0172913381551982,0
3,4,577,40,4,-45,-1.76217139591459,1,0.600905700000112,0.0299817999998595,0.0411392999999407,0.0172913381551982,0
14,4,578,260,26,-45,-1.76217139591459,1,0.728837899999689,0.0299312000001919,0.265392899999824,0.0172913381551982,0
51,4,579,1000,100,-45,-1.76217139591459,-1,0.586596499999814,0.02996179999991,0.999067600000217,0.0172913381551982,1
20,4,580,380,38,-45,-1.76217139591459,-1,0.674436899999819,0.0299882999997862,0.38313960000005,0.0172913381551982,1
21,4,581,400,40,-45,-1.76217139591459,1,0.754374999999982,0.0300403000001097,0.399168599999939,0.0172913381551982,0
18,4,582,340,34,-45,-1.76217139591459,-1,0.720733000000109,0.0298411484186545,0.337605651581725,0.0172913381551982,1
8,4,583,140,14,45,-1.76217139591459,-1,0.496718500000043,0.0299525999998878,0.14565070000026,0.0172913381551982,0
30,4,584,580,58,45,-1.76217139591459,1,0.622369700000036,0.0299641000001429,0.579338599999573,0.0172913381551982,1
35,4,585,680,68,-45,-1.76217139591459,1,0.490644800000155,0.0298227906214379,0.679706609378627,0.0172913381551982,0
25,4,586,480,48,45,-1.76217139591459,1,0.428801000000021,0.0299193000000741,0.48563409999997,0.0172913381551982,1
2,4,587,20,2,-45,-1.76217139591459,1,0.512415799999872,0.0299789000000601,0.0173643000002812,0.0172913381551982,0
50,4,588,980,98,45,-1.76217139591459,1,1.6461918,0.0298419000000649,0.979501199999959,0.0172913381551982,1
40,4,589,780,78,45,-1.76217139591459,1,0.582089900000028,0.0300546000003123,0.779592099999718,0.0172913381551982,1
43,4,590,840,84,-45,-1.76217139591459,-1,0.580527200000233,0.0299715000001015,0.845623899999737,0.0172913381551982,1
36,4,591,700,70,-45,-1.76217139591459,1,0.580551699999887,0.029946199999813,0.701543000000129,0.0172913381551982,0
8,4,592,140,14,-45,-1.76217139591459,-1,0.642685400000119,0.0299488999999085,0.143827800000054,0.0172913381551982,1
24,4,593,460,46,45,-1.76217139591459,1,0.499904600000264,0.0300244000000021,0.461647399999947,0.0172913381551982,1
30,4,594,580,58,45,-1.76217139591459,1,0.424399999999878,0.0299279000000752,0.585405199999968,0.0172913381551982,1
41,4,595,800,80,-45,-1.76217139591459,-1,0.366261099999974,0.0299880999996276,0.804010100000141,0.0172913381551982,1
34,4,596,660,66,45,-1.76217139591459,1,0.985953999999765,0.0299678000001222,0.663733999999749,0.0172913381551982,1
12,4,597,220,22,-45,-1.76217139591459,-1,0.580312999999933,0.0299832000000606,0.221988600000259,0.0172913381551982,1
43,4,598,840,84,-45,-1.76217139591459,-1,0.537862000000132,0.0299610000001849,0.839788400000089,0.0172913381551982,1
11,4,599,200,20,-45,-1.76217139591459,1,0.629894100000001,0.0299821999997221,0.204037299999982,0.0172913381551982,0
9,4,600,160,16,45,-1.76217139591459,1,0.63813140000002,0.0299510999998347,0.163900099999864,0.0172913381551982,1
7,4,601,120,12,45,-1.76217139591459,1,0.872061200000189,0.0300176999999167,0.121904000000086,0.0172913381551982,1
39,4,602,760,76,45,-1.76217139591459,1,0.643998699999884,0.0299405000000661,0.766019800000322,0.0172913381551982,1
9,4,603,160,16,-45,-1.76217139591459,1,0.781773799999883,0.0299458999998024,0.164139100000284,0.0172913381551982,0
46,4,604,900,90,-45,-1.76217139591459,1,0.539625999999771,0.0300480999999309,0.9022030000001,0.0172913381551982,0
7,4,605,120,12,-45,-1.76217139591459,1,2.56418799999983,0.0300219999999172,0.126181300000098,0.0172913381551982,0
31,4,606,600,60,45,-1.76217139591459,1,0.616068000000269,0.0299485999998979,0.602047599999878,0.0172913381551982,1
6,4,607,100,10,-45,-1.76217139591459,-1,0.587725699999737,0.0299252999998316,0.102288300000055,0.0172913381551982,1
38,4,608,740,74,45,-1.76217139591459,1,0.521700500000406,0.029876399999921,0.744015000000218,0.0172913381551982,1
47,4,609,920,92,-45,-1.76217139591459,-1,0.523817000000236,0.029831267175723,0.91851763282466,0.0172913381551982,1
4,4,610,60,6,-45,-1.76217139591459,1,0.679661699999997,0.0300594000000274,0.0582594000002246,0.0172913381551982,0
1,4,611,0,0,45,-1.76217139591459,1,0.553861200000028,0.0299738000003344,0.00834439999971437,0.0172913381551982,1
3,4,612,40,4,45,-1.76217139591459,1,0.569791699999769,0.030028399999992,0.0402974999997241,0.0172913381551982,1
43,5,613,840,84,45,-1.76217139591459,1,0.620384899999863,0.0298516317707254,0.837458868229533,0.0172913381551982,1
43,5,614,840,84,-45,-1.76217139591459,-1,0.508506899999702,0.0299463541618934,0.83778044583778,0.0172913381551982,1
23,5,615,440,44,-45,-1.76217139591459,1,0.628308399999696,0.0299816000001556,0.445303999999851,0.0172913381551982,0
32,5,616,620,62,45,-1.76217139591459,1,0.466267900000275,0.0300264000002244,0.623412399999779,0.0172913381551982,1
10,5,617,180,18,-45,-1.76217139591459,1,0.536661199999799,0.0300062000001162,0.185547699999915,0.0172913381551982,0
23,5,618,440,44,-45,-1.76217139591459,-1,0.486339999999927,0.0300159999997049,0.443662700000004,0.0172913381551982,1
39,5,619,760,76,-45,-1.76217139591459,-1,0.438567700000021,0.0299678000001222,0.76355919999969,0.0172913381551982,1
26,5,620,500,50,45,-1.76217139591459,1,0.424591400000281,0.0299724999999853,0.505445700000109,0.0172913381551982,1
22,5,621,420,42,45,-1.76217139591459,1,0.458208099999865,0.0299580000000788,0.423665199999959,0.0172913381551982,1
25,5,622,480,48,-45,-1.76217139591459,1,0.548466499999904,0.0298487999998542,0.47787070000004,0.0172913381551982,0
8,5,623,140,14,-45,-1.76217139591459,-1,0.516390699999647,0.0300131999997575,0.141744300000028,0.0172913381551982,1
21,5,624,400,40,45,-1.76217139591459,1,0.466438400000243,0.030032200000278,0.399791399999685,0.0172913381551982,1
26,5,625,500,50,-45,-1.76217139591459,-1,0.528581800000211,0.0297417859324014,0.497925314067743,0.0172913381551982,1
29,5,626,560,56,45,-1.76217139591459,1,0.430368400000134,0.0299909000000298,0.563890599999922,0.0172913381551982,1
22,5,627,420,42,-45,-1.76217139591459,-1,0.456384699999944,0.0299883999996382,0.425829500000418,0.0172913381551982,1
48,5,628,940,94,-45,-1.76217139591459,-1,0.516077199999927,0.030001799999809,0.94180869999991,0.0172913381551982,1
14,5,629,260,26,45,-1.76217139591459,1,0.510168499999963,0.0298489400943254,0.259816959905493,0.0172913381551982,1
26,5,630,500,50,45,-1.76217139591459,1,0.679970700000013,0.029977400000007,0.50593549999985,0.0172913381551982,1
21,5,631,400,40,-45,-1.76217139591459,1,0.491977499999848,0.0299509000001308,0.405840699999771,0.0172913381551982,0
48,5,632,940,94,-45,-1.76217139591459,-1,0.436195000000225,0.0300340000003416,0.942008999999871,0.0172913381551982,1
19,5,633,360,36,-45,-1.76217139591459,-1,0.472351799999615,0.0299735000003238,0.361957499999789,0.0172913381551982,1
19,5,634,360,36,45,-1.76217139591459,-1,0.568122899999707,0.0299509000001308,0.362090500000249,0.0172913381551982,0
51,5,635,1000,100,45,-1.76217139591459,1,0.643901699999788,0.0299884999999449,1.00573120000035,0.0172913381551982,1
44,5,636,860,86,45,-1.76217139591459,-1,0.694203600000037,0.0299830000003567,0.859740999999758,0.0172913381551982,0
32,5,637,620,62,45,-1.76217139591459,1,0.511786799999754,0.0299775999997109,0.626098200000342,0.0172913381551982,1
19,5,638,360,36,45,-1.76217139591459,1,0.539970199999971,0.029897962486757,0.358251337513593,0.0172913381551982,1
44,5,639,860,86,45,-1.76217139591459,1,0.529964199999995,0.0299629999999524,0.864102300000013,0.0172913381551982,1
38,5,640,740,74,-45,-1.76217139591459,-1,0.459999799999878,0.0299543999999514,0.741736200000105,0.0172913381551982,1
1,5,641,0,0,-45,-1.76217139591459,-1,0.778097999999773,0.0300592000003235,0.0079172999999173,0.0172913381551982,1
35,5,642,680,68,-45,-1.76217139591459,-1,0.455656500000259,0.0300386000003527,0.6816560999996,0.0172913381551982,1
28,5,643,540,54,45,-1.76217139591459,-1,0.597694000000047,0.030047199999899,0.54030849999981,0.0172913381551982,0
24,5,644,460,46,-45,-1.76217139591459,-1,0.546140700000251,0.0299866999998812,0.46410590000005,0.0172913381551982,1
22,5,645,420,42,-45,-1.76217139591459,1,0.505816999999752,0.0299484000001939,0.424341299999924,0.0172913381551982,0
28,5,646,540,54,45,-1.76217139591459,1,0.391439999999875,0.0298960624863867,0.538370537513401,0.0172913381551982,1
37,5,647,720,72,45,-1.76217139591459,1,0.399834499999997,0.0300407999998242,0.722114900000179,0.0172913381551982,1
12,5,648,220,22,-45,-1.76217139591459,-1,0.517839200000253,0.0299460000001091,0.220096699999885,0.0172913381551982,1
47,5,649,920,92,-45,-1.76217139591459,1,0.487806099999943,0.0299739000001864,0.922060899999906,0.0172913381551982,0
5,5,650,80,8,45,-1.76217139591459,1,0.624069999999847,0.0299586000001,0.0824009999996633,0.0172913381551982,1
10,5,651,180,18,-45,-1.76217139591459,1,0.557544300000245,0.0298448270809786,0.180511872918942,0.0172913381551982,0
34,5,652,660,66,45,-1.76217139591459,-1,0.605834499999673,0.0299783000000389,0.660245100000338,0.0172913381551982,0
3,5,653,40,4,-45,-1.76217139591459,-1,0.837700799999766,0.0299697999998898,0.0442855999999665,0.0172913381551982,1
41,5,654,800,80,45,-1.76217139591459,-1,0.657361600000058,0.0300021999996716,0.80037510000011,0.0172913381551982,0
13,5,655,240,24,-45,-1.76217139591459,1,0.735971499999778,0.0299627999997938,0.242492000000311,0.0172913381551982,0
12,5,656,220,22,-45,-1.76217139591459,-1,0.531532099999822,0.0299997000001895,0.222274399999606,0.0172913381551982,1
50,5,657,980,98,-45,-1.76217139591459,1,0.617275399999926,0.0299451999999292,0.984176399999797,0.0172913381551982,0
18,5,658,340,34,-45,-1.76217139591459,-1,0.473700300000019,0.0300065999999788,0.344254699999965,0.0172913381551982,1
30,5,659,580,58,45,-1.76217139591459,-1,0.521636199999648,0.0299255999998422,0.58460950000017,0.0172913381551982,0
29,5,660,560,56,45,-1.76217139591459,1,0.467382199999975,0.0298339223918447,0.558716677608118,0.0172913381551982,1
34,5,661,660,66,45,-1.76217139591459,1,0.535548699999708,0.0300141000002441,0.666599399999996,0.0172913381551982,1
36,5,662,700,70,-45,-1.76217139591459,1,0.467614600000161,0.0298937000002297,0.702683499999694,0.0172913381551982,0
10,5,663,180,18,-45,-1.76217139591459,-1,0.573659700000007,0.0299684999999954,0.180349400000068,0.0172913381551982,1
31,5,664,600,60,45,-1.76217139591459,-1,0.571360599999934,0.0299478000001727,0.598583699999836,0.0172913381551982,0
24,5,665,460,46,45,-1.76217139591459,1,0.439416600000186,0.0298358223917603,0.45871357760825,0.0172913381551982,1
42,5,666,820,82,-45,-1.76217139591459,-1,0.493468199999825,0.0300305000000662,0.820818500000314,0.0172913381551982,1
44,5,667,860,86,-45,-1.76217139591459,-1,0.597553600000083,0.0300348999999187,0.86077720000003,0.0172913381551982,1
9,5,668,160,16,-45,-1.76217139591459,-1,0.529400599999917,0.0300048999997671,0.160283900000195,0.0172913381551982,1
15,5,669,280,28,-45,-1.76217139591459,1,0.583390299999792,0.0300293999998757,0.28252190000012,0.0172913381551982,0
42,5,670,820,82,45,-1.76217139591459,1,0.621030600000267,0.0299912999998924,0.820900400000028,0.0172913381551982,1
9,5,671,160,16,45,-1.76217139591459,1,0.549330800000007,0.0299995000000308,0.15693280000005,0.0172913381551982,1
42,5,672,820,82,45,-1.76217139591459,1,0.712991800000054,0.0299887999999555,0.824956999999813,0.0172913381551982,1
43,5,673,840,84,-45,-1.76217139591459,-1,0.741286700000273,0.0300109999998313,0.845006399999875,0.0172913381551982,1
47,5,674,920,92,-45,-1.76217139591459,-1,0.685063899999932,0.0299831635406917,0.916908836459243,0.0172913381551982,1
16,5,675,300,30,45,-1.76217139591459,1,0.645239100000254,0.0299267000000327,0.301003799999762,0.0172913381551982,1
31,5,676,600,60,45,-1.76217139591459,1,0.569200900000396,0.0299550999998246,0.60071599999992,0.0172913381551982,1
2,5,677,20,2,-45,-1.76217139591459,-1,0.697041700000227,0.0299364000002242,0.0247767000000749,0.0172913381551982,1
45,5,678,880,88,-45,-1.76217139591459,1,0.540900500000134,0.0299466999999822,0.884943099999873,0.0172913381551982,0
9,5,679,160,16,-45,-1.76217139591459,1,0.72282449999966,0.0299912999998924,0.158970200000113,0.0172913381551982,0
2,5,680,20,2,45,-1.76217139591459,-1,0.605200200000127,0.029939099999865,0.0211075000001983,0.0172913381551982,0
7,5,681,120,12,-45,-1.76217139591459,-1,0.587087800000063,0.0298947000001135,0.118883799999821,0.0172913381551982,1
11,5,682,200,20,-45,-1.76217139591459,-1,0.746896000000106,0.0299818999997115,0.199024399999871,0.0172913381551982,1
11,5,683,200,20,45,-1.76217139591459,1,0.519148100000166,0.0299448000000666,0.202764000000116,0.0172913381551982,1
20,5,684,380,38,45,-1.76217139591459,1,0.518636000000242,0.0298536494728978,0.379173550527412,0.0172913381551982,1
48,5,685,940,94,-45,-1.76217139591459,-1,0.688589599999887,0.0299937999998292,0.945005600000059,0.0172913381551982,1
38,5,686,740,74,45,-1.76217139591459,1,0.586559399999715,0.0299894000004315,0.743104199999834,0.0172913381551982,1
36,5,687,700,70,-45,-1.76217139591459,-1,0.498912699999892,0.0299493000002258,0.703284799999892,0.0172913381551982,1
25,5,688,480,48,-45,-1.76217139591459,-1,0.46684630000027,0.0299504999998135,0.479174999999941,0.0172913381551982,1
23,5,689,440,44,-45,-1.76217139591459,1,0.684932199999821,0.0297823036353293,0.437158696364804,0.0172913381551982,0
17,5,690,320,32,-45,-1.76217139591459,1,0.478547400000025,0.0299936999999773,0.32316579999997,0.0172913381551982,0
36,5,691,700,70,-45,-1.76217139591459,-1,0.628973900000346,0.0297787213376068,0.7012722786626,0.0172913381551982,1
4,5,692,60,6,45,-1.76217139591459,1,0.656568200000038,0.0299917000002097,0.0654074999997647,0.0172913381551982,1
47,5,693,920,92,-45,-1.76217139591459,-1,0.648598599999787,0.0300258999996004,0.921246500000052,0.0172913381551982,1
16,5,694,300,30,-45,-1.76217139591459,1,0.56855029999997,0.0299269999995886,0.297381600000335,0.0172913381551982,0
32,5,695,620,62,-45,-1.76217139591459,1,0.448573600000145,0.0298956999999973,0.625182499999937,0.0172913381551982,0
2,5,696,20,2,45,-1.76217139591459,-1,0.860827599999993,0.0299900999998499,0.0211116999998922,0.0172913381551982,0
6,5,697,100,10,-45,-1.76217139591459,1,0.556532699999934,0.0299976999999672,0.10142739999992,0.0172913381551982,0
13,5,698,240,24,45,-1.76217139591459,1,0.450891299999967,0.03010839999979,0.239401599999837,0.0172913381551982,1
28,5,699,540,54,-45,-1.76217139591459,-1,0.712567800000215,0.0299052953109822,0.537605004688885,0.0172913381551982,1
7,5,700,120,12,-45,-1.76217139591459,1,0.566681700000117,0.030076999999892,0.123373399999764,0.0172913381551982,0
40,5,701,780,78,-45,-1.76217139591459,-1,0.512495800000124,0.029984499999955,0.785602299999937,0.0172913381551982,1
21,5,702,400,40,-45,-1.76217139591459,1,0.53023260000009,0.0299715999999535,0.399337899999864,0.0172913381551982,0
46,5,703,900,90,45,-1.76217139591459,1,0.590139400000226,0.0300290999998651,0.899366600000121,0.0172913381551982,1
35,5,704,680,68,-45,-1.76217139591459,-1,0.604403699999693,0.0298508130135815,0.67769458698649,0.0172913381551982,1
18,5,705,340,34,-45,-1.76217139591459,1,0.840535699999691,0.029946099999961,0.345582100000229,0.0172913381551982,0
7,5,706,120,12,45,-1.76217139591459,1,0.59613279999985,0.0300256999998965,0.125636900000245,0.0172913381551982,1
27,5,707,520,52,45,-1.76217139591459,1,0.596140699999978,0.0299628000002485,0.525581599999896,0.0172913381551982,1
51,5,708,1000,100,-45,-1.76217139591459,-1,0.746060500000112,0.0298955953107907,0.9997642046892,0.0172913381551982,1
8,5,709,140,14,-45,-1.76217139591459,-1,0.644484299999931,0.0300170000000435,0.141561699999784,0.0172913381551982,1
4,5,710,60,6,45,-1.76217139591459,1,0.612188600000081,0.0299740000000384,0.0613946000003125,0.0172913381551982,1
50,5,711,980,98,-45,-1.76217139591459,-1,0.974345999999969,0.0300416999998561,0.979637899999943,0.0172913381551982,1
40,5,712,780,78,-45,-1.76217139591459,-1,0.576275200000055,0.0300025999999889,0.785889100000077,0.0172913381551982,1
18,5,713,340,34,45,-1.76217139591459,1,0.608172299999751,0.0298922000001767,0.33779689999983,0.0172913381551982,1
39,5,714,760,76,-45,-1.76217139591459,1,0.584273500000108,0.0300183999997898,0.761784700000135,0.0172913381551982,0
49,5,715,960,96,-45,-1.76217139591459,-1,0.684177999999974,0.0299924000000829,0.965928500000246,0.0172913381551982,1
38,5,716,740,74,45,-1.76217139591459,1,0.616231599999992,0.0299749000000702,0.746016200000213,0.0172913381551982,1
6,5,717,100,10,-45,-1.76217139591459,-1,0.890128000000004,0.0299983999998403,0.104122000000189,0.0172913381551982,1
45,5,718,880,88,45,-1.76217139591459,1,0.627836000000116,0.0298709989460804,0.878048801053865,0.0172913381551982,1
8,5,719,140,14,45,-1.76217139591459,-1,0.882110799999737,0.0299626999999418,0.144122899999729,0.0172913381551982,0
13,5,720,240,24,45,-1.76217139591459,1,0.624069599999984,0.0299712000000909,0.241822400000274,0.0172913381551982,1
46,5,721,900,90,45,-1.76217139591459,1,0.699999500000104,0.0299921000000722,0.901799799999935,0.0172913381551982,1
41,5,722,800,80,45,-1.76217139591459,1,0.540082699999857,0.0299294999999802,0.805964799999856,0.0172913381551982,1
3,5,723,40,4,45,-1.76217139591459,1,0.700108300000011,0.0299380999999812,0.0382006999998339,0.0172913381551982,1
51,5,724,1000,100,45,-1.76217139591459,-1,0.981745900000078,0.0299787999997534,1.0039784999999,0.0172913381551982,0
6,5,725,100,10,45,-1.76217139591459,1,3.16171099999974,0.029951600000004,0.104083300000184,0.0172913381551982,1
15,5,726,280,28,45,-1.76217139591459,1,0.531823100000111,0.0300377999997181,0.286323400000128,0.0172913381551982,1
49,5,727,960,96,-45,-1.76217139591459,-1,0.559804900000017,0.0299927000000935,0.962082699999883,0.0172913381551982,1
14,5,728,260,26,-45,-1.76217139591459,-1,0.513821000000007,0.0300669999996899,0.256397600000128,0.0172913381551982,1
5,5,729,80,8,45,-1.76217139591459,-1,0.511902900000223,0.0299485000000459,0.0823421999998573,0.0172913381551982,0
1,5,730,0,0,45,-1.76217139591459,1,0.431844600000204,0.0299747999997635,0.00203510000028473,0.0172913381551982,1
3,5,731,40,4,45,-1.76217139591459,1,0.301889899999878,0.0300191999999697,0.0361120999996274,0.0172913381551982,1
45,5,732,880,88,-45,-1.76217139591459,1,0.499626899999839,0.0299633635404462,0.878402036459192,0.0172913381551982,0
37,5,733,720,72,45,-1.76217139591459,1,0.97534560000031,0.0300035000000207,0.722291799999766,0.0172913381551982,1
30,5,734,580,58,-45,-1.76217139591459,1,0.477450500000032,0.0299598999999944,0.580541499999981,0.0172913381551982,0
33,5,735,640,64,-45,-1.76217139591459,-1,0.299816499999906,0.0299896999999874,0.646392600000127,0.0172913381551982,1
17,5,736,320,32,45,-1.76217139591459,1,0.557767100000092,0.0299707999997736,0.324309600000106,0.0172913381551982,1
4,5,737,60,6,-45,-1.76217139591459,-1,0.553486300000259,0.0299408000000767,0.0562282000000778,0.0172913381551982,1
27,5,738,520,52,-45,-1.76217139591459,-1,0.517618500000026,0.0299677999996675,0.524518000000171,0.0172913381551982,1
27,5,739,520,52,-45,-1.76217139591459,-1,0.555534299999636,0.0299098000000413,0.518656799999917,0.0172913381551982,1
17,5,740,320,32,-45,-1.76217139591459,-1,0.555237300000044,0.0299596999998357,0.326413799999955,0.0172913381551982,1
11,5,741,200,20,-45,-1.76217139591459,-1,0.555496299999959,0.029922171864655,0.198561328135384,0.0172913381551982,1
25,5,742,480,48,45,-1.76217139591459,1,0.61155430000008,0.0298903765542491,0.47852262344577,0.0172913381551982,1
34,5,743,660,66,-45,-1.76217139591459,-1,0.311481400000048,0.0299786999999014,0.666741000000002,0.0172913381551982,1
41,5,744,800,80,45,-1.76217139591459,-1,0.623132000000169,0.029993099999956,0.80270500000006,0.0172913381551982,0
1,5,745,0,0,-45,-1.76217139591459,1,0.841459900000245,0.0300090999999156,0.00837470000033136,0.0172913381551982,0
30,5,746,580,58,45,-1.76217139591459,1,0.621476299999813,0.0299559000000045,0.580583899999965,0.0172913381551982,1
33,5,747,640,64,45,-1.76217139591459,1,0.431403900000078,0.0299297000001388,0.642717699999594,0.0172913381551982,1
16,5,748,300,30,-45,-1.76217139591459,1,0.632885800000167,0.0299049765540076,0.297094423446197,0.0172913381551982,0
12,5,749,220,22,45,-1.76217139591459,1,0.553294800000003,0.0298975999999129,0.216696200000115,0.0172913381551982,1
40,5,750,780,78,-45,-1.76217139591459,1,0.882993700000043,0.0299664999997731,0.782915499999945,0.0172913381551982,0
31,5,751,600,60,-45,-1.76217139591459,1,0.661393899999894,0.0299326999997902,0.604709900000216,0.0172913381551982,0
50,5,752,980,98,-45,-1.76217139591459,-1,0.61938149999969,0.0299690000001647,0.983047400000032,0.0172913381551982,1
20,5,753,380,38,-45,-1.76217139591459,-1,0.517182800000228,0.0299564000001737,0.380755300000146,0.0172913381551982,1
24,5,754,460,46,-45,-1.76217139591459,1,0.601113400000031,0.0298437999999805,0.457161400000132,0.0172913381551982,0
46,5,755,900,90,45,-1.76217139591459,1,0.53513619999967,0.0299792999999227,0.906824700000016,0.0172913381551982,1
20,5,756,380,38,45,-1.76217139591459,1,0.503045700000257,0.0299717999996574,0.378830999999991,0.0172913381551982,1
5,5,757,80,8,45,-1.76217139591459,1,0.573179299999993,0.0299848999998176,0.084744000000228,0.0172913381551982,1
39,5,758,760,76,-45,-1.76217139591459,1,0.540868800000226,0.029781903635012,0.757050296364923,0.0172913381551982,0
14,5,759,260,26,-45,-1.76217139591459,1,0.539165899999716,0.0299565999998777,0.262847899999997,0.0172913381551982,0
37,5,760,720,72,-45,-1.76217139591459,-1,0.641026899999815,0.0300060999998095,0.721178100000088,0.0172913381551982,1
15,5,761,280,28,-45,-1.76217139591459,-1,0.682951600000251,0.0299810999999863,0.278993499999615,0.0172913381551982,1
49,5,762,960,96,-45,-1.76217139591459,-1,0.816616900000099,0.0299918000000616,0.961273299999903,0.0172913381551982,1
29,5,763,560,56,45,-1.76217139591459,1,0.580398799999784,0.0299075635402914,0.557385836459616,0.0172913381551982,1
35,5,764,680,68,-45,-1.76217139591459,1,0.61491739999974,0.0299995000000308,0.683038699999997,0.0172913381551982,0
33,5,765,640,64,-45,-1.76217139591459,1,0.588801700000204,0.0298224000002847,0.645323799999915,0.0172913381551982,0
42,6,766,820,82,45,-1.76217139591459,-1,0.640259400000105,0.0299255447835094,0.81732395521658,0.0172913381551982,0
30,6,767,580,58,-45,-1.76217139591459,-1,0.6163346000003,0.0300011999997878,0.585459299999911,0.0172913381551982,1
42,6,768,820,82,-45,-1.76217139591459,-1,0.444289000000026,0.0300203000001602,0.821327399999973,0.0172913381551982,1
6,6,769,100,10,-45,-1.76217139591459,-1,0.598805600000105,0.0299264999998741,0.107280800000353,0.0172913381551982,1
3,6,770,40,4,45,-1.76217139591459,-1,0.596686899999895,0.0299759999998059,0.0455042000003232,0.0172913381551982,0
11,6,771,200,20,45,-1.76217139591459,1,0.742647799999759,0.0299623000000793,0.203329899999972,0.0172913381551982,1
15,6,772,280,28,45,-1.76217139591459,1,0.588104599999951,0.0299229494726205,0.277538250526959,0.0172913381551982,1
13,6,773,240,24,-45,-1.76217139591459,1,0.562164700000267,0.029950000000099,0.239683299999797,0.0172913381551982,0
28,6,774,540,54,-45,-1.76217139591459,1,0.520469000000048,0.0299058541618251,0.53715384583802,0.0172913381551982,0
26,6,775,500,50,45,-1.76217139591459,1,0.440562300000238,0.0299713000003976,0.505687399999715,0.0172913381551982,1
51,6,776,1000,100,45,-1.76217139591459,1,0.516451699999834,0.0299620000000687,1.00546059999988,0.0172913381551982,1
24,6,777,460,46,-45,-1.76217139591459,-1,0.532554400000208,0.0299863999998706,0.461805800000093,0.0172913381551982,1
39,6,778,760,76,45,-1.76217139591459,1,0.500191499999801,0.0299344000000019,0.765152299999954,0.0172913381551982,1
35,6,779,680,68,-45,-1.76217139591459,-1,0.364002899999832,0.0298839400943507,0.677631959905284,0.0172913381551982,1
37,6,780,720,72,-45,-1.76217139591459,1,0.516069199999947,0.0298471999999492,0.717928000000029,0.0172913381551982,0
26,6,781,500,50,45,-1.76217139591459,1,0.476403300000129,0.0299541999997928,0.501903800000036,0.0172913381551982,1
15,6,782,280,28,45,-1.76217139591459,1,0.458065899999838,0.0300535999999738,0.27988090000008,0.0172913381551982,1
5,6,783,80,8,45,-1.76217139591459,1,0.690000200000213,0.0300105000001167,0.0798328999999285,0.0172913381551982,1
12,6,784,220,22,-45,-1.76217139591459,1,0.496115100000225,0.0299408000000767,0.225506100000075,0.0172913381551982,0
31,6,785,600,60,-45,-1.76217139591459,1,0.410011599999962,0.0300358999998025,0.59995889999982,0.0172913381551982,0
14,6,786,260,26,45,-1.76217139591459,-1,0.602189200000339,0.029974200000197,0.263753599999745,0.0172913381551982,0
1,6,787,0,0,-45,-1.76217139591459,-1,0.684424600000057,0.0298975999999129,0.00583999999980733,0.0172913381551982,1
21,6,788,400,40,-45,-1.76217139591459,1,0.578045199999906,0.029896057797032,0.400115742202615,0.0172913381551982,0
2,6,789,20,2,45,-1.76217139591459,1,0.768409999999676,0.0298714000000473,0.0180317999997897,0.0172913381551982,1
38,6,790,740,74,-45,-1.76217139591459,1,0.667855500000314,0.0300157000001491,0.741768500000035,0.0172913381551982,0
49,6,791,960,96,45,-1.76217139591459,-1,0.276085800000146,0.0298640953110407,0.958190704689059,0.0172913381551982,0
2,6,792,20,2,45,-1.76217139591459,1,0.530011000000286,0.0300234999999702,0.015851499999826,0.0172913381551982,1
16,6,793,300,30,-45,-1.76217139591459,1,0.560149100000217,0.0299141000000418,0.305967899999814,0.0172913381551982,0
30,6,794,580,58,-45,-1.76217139591459,-1,0.444233700000041,0.0299208999999792,0.581892400000015,0.0172913381551982,1
22,6,795,420,42,-45,-1.76217139591459,-1,0.619822699999986,0.0299504999998135,0.422118700000283,0.0172913381551982,1
47,6,796,920,92,-45,-1.76217139591459,-1,0.58782999999994,0.0299156859323375,0.918034114067723,0.0172913381551982,1
18,6,797,340,34,45,-1.76217139591459,1,0.650119500000073,0.0299337999999807,0.343901599999754,0.0172913381551982,1
10,6,798,180,18,-45,-1.76217139591459,-1,0.44775350000009,0.0298663541620954,0.178105045838038,0.0172913381551982,1
1,6,799,0,0,-45,-1.76217139591459,1,0.935996599999726,0.0300133999999161,0.0101699000001645,0.0172913381551982,0
46,6,800,900,90,45,-1.76217139591459,1,0.723723399999926,0.0498723000000609,0.905681699999604,0.0172913381551982,1
41,6,801,800,80,-45,-1.76217139591459,-1,0.749664099999791,0.0299362999999175,0.804332700000032,0.0172913381551982,1
18,6,802,340,34,45,-1.76217139591459,1,0.525947499999802,0.02998290000005,0.340009000000009,0.0172913381551982,1
11,6,803,200,20,45,-1.76217139591459,-1,0.757650499999727,0.0300884999996924,0.203844200000276,0.0172913381551982,0
29,6,804,560,56,45,-1.76217139591459,1,0.781509800000094,0.0299896999999874,0.564115700000002,0.0172913381551982,1
3,6,805,40,4,45,-1.76217139591459,-1,1.06571800000029,0.0299822000001768,0.0402426999999079,0.0172913381551982,0
13,6,806,240,24,45,-1.76217139591459,1,0.579327099999773,0.0299226541619646,0.23823064583803,0.0172913381551982,1
20,6,807,380,38,-45,-1.76217139591459,-1,1.13746189999983,0.0299494999999297,0.384180900000047,0.0172913381551982,1
32,6,808,620,62,45,-1.76217139591459,-1,0.709687100000338,0.0300277999999707,0.620262700000239,0.0172913381551982,0
45,6,809,880,88,45,-1.76217139591459,1,0.703957299999729,0.0298225999999886,0.882572900000014,0.0172913381551982,1
10,6,810,180,18,-45,-1.76217139591459,1,0.713355599999886,0.0300658999999541,0.184250799999973,0.0172913381551982,0
26,6,811,500,50,45,-1.76217139591459,1,1.14532439999994,0.0299867999997332,0.504261600000063,0.0172913381551982,1
50,6,812,980,98,45,-1.76217139591459,1,0.809461999999712,0.0300045999997565,0.984629700000369,0.0172913381551982,1
4,6,813,60,6,-45,-1.76217139591459,-1,0.601805799999966,0.0299848000004204,0.0562525000000278,0.0172913381551982,1
19,6,814,360,36,-45,-1.76217139591459,-1,0.693555500000002,0.0300296000000344,0.364462200000162,0.0172913381551982,1
24,6,815,460,46,45,-1.76217139591459,1,0.513250999999855,0.0299922999997762,0.46388960000013,0.0172913381551982,1
27,6,816,520,52,-45,-1.76217139591459,1,0.53157020000026,0.0299387000000024,0.526724000000286,0.0172913381551982,0
8,6,817,140,14,45,-1.76217139591459,1,1.02722719999974,0.0300219999999172,0.142411799999991,0.0172913381551982,1
38,6,818,740,74,45,-1.76217139591459,1,0.503160599999774,0.0299871000001986,0.746081499999946,0.0172913381551982,1
15,6,819,280,28,-45,-1.76217139591459,-1,0.47743569999966,0.0298478906215678,0.276872009378621,0.0172913381551982,1
25,6,820,480,48,-45,-1.76217139591459,-1,0.64113129999987,0.0300655000000916,0.480402299999696,0.0172913381551982,1
39,6,821,760,76,45,-1.76217139591459,-1,0.599342800000159,0.030005500000243,0.762567799999943,0.0172913381551982,0
21,6,822,400,40,-45,-1.76217139591459,1,0.693203899999844,0.0299386000001505,0.396787600000152,0.0172913381551982,0
12,6,823,220,22,-45,-1.76217139591459,-1,0.612929500000064,0.029972700000144,0.220534999999927,0.0172913381551982,1
11,6,824,200,20,-45,-1.76217139591459,-1,0.595510800000284,0.0299654999998893,0.206891100000121,0.0172913381551982,1
6,6,825,100,10,45,-1.76217139591459,1,0.569332099999883,0.0299783000000389,0.104622500000005,0.0172913381551982,1
7,6,826,120,12,-45,-1.76217139591459,-1,0.579463199999736,0.0299898000002941,0.126671699999861,0.0172913381551982,1
48,6,827,940,94,-45,-1.76217139591459,-1,0.728927199999816,0.0299138000000312,0.936725199999728,0.0172913381551982,1
27,6,828,520,52,45,-1.76217139591459,1,0.665142800000012,0.0299993000003269,0.520784399999684,0.0172913381551982,1
9,6,829,160,16,45,-1.76217139591459,1,0.859208999999737,0.0299936000001253,0.166800099999818,0.0172913381551982,1
4,6,830,60,6,45,-1.76217139591459,1,0.825445999999829,0.0299255999998422,0.0568785999998909,0.0172913381551982,1
25,6,831,480,48,-45,-1.76217139591459,1,0.571177499999976,0.0299808999998277,0.48710200000005,0.0172913381551982,0
20,6,832,380,38,45,-1.76217139591459,1,0.633205499999804,0.0299494999999297,0.376920600000176,0.0172913381551982,1
40,6,833,780,78,45,-1.76217139591459,1,0.595162000000073,0.0299701999997524,0.782817200000409,0.0172913381551982,1
34,6,834,660,66,-45,-1.76217139591459,1,0.700761399999919,0.029892000000018,0.660878299999695,0.0172913381551982,0
43,6,835,840,84,45,-1.76217139591459,1,0.568808099999842,0.029989999999998,0.840929500000129,0.0172913381551982,1
6,6,836,100,10,-45,-1.76217139591459,-1,0.891043399999944,0.0299898000002941,0.10268139999971,0.0172913381551982,1
35,6,837,680,68,-45,-1.76217139591459,1,0.674817099999927,0.0300470000001951,0.686863699999776,0.0172913381551982,0
34,6,838,660,66,45,-1.76217139591459,-1,0.81482300000016,0.0299092400946392,0.659198859905246,0.0172913381551982,0
28,6,839,540,54,45,-1.76217139591459,1,0.64498229999981,0.0299123999998301,0.541192199999841,0.0172913381551982,1
49,6,840,960,96,45,-1.76217139591459,1,0.573009199999888,0.0299965999997767,0.964978200000132,0.0172913381551982,1
17,6,841,320,32,-45,-1.76217139591459,-1,0.670661499999824,0.0299781999997322,0.323292300000048,0.0172913381551982,1
19,6,842,360,36,45,-1.76217139591459,1,0.884737100000166,0.0300204000000122,0.365416099999948,0.0172913381551982,1
42,6,843,820,82,45,-1.76217139591459,1,0.688689300000078,0.0298312083236851,0.817214091676306,0.0172913381551982,1
32,6,844,620,62,-45,-1.76217139591459,-1,0.560772499999985,0.0299130000003061,0.625069799999892,0.0172913381551982,1
44,6,845,860,86,-45,-1.76217139591459,1,1.03283909999982,0.0297818354051742,0.857572664594954,0.0172913381551982,0
8,6,846,140,14,45,-1.76217139591459,-1,3.2844583000001,0.0299842999997963,0.141086900000118,0.0172913381551982,0
39,6,847,760,76,45,-1.76217139591459,1,0.740452500000174,0.0299970999999459,0.765239400000155,0.0172913381551982,1
41,6,848,800,80,-45,-1.76217139591459,1,0.670363900000211,0.0298705000000155,0.80344150000019,0.0172913381551982,0
44,6,849,860,86,45,-1.76217139591459,1,0.664266600000246,0.0298275906216077,0.857574509378537,0.0172913381551982,1
31,6,850,600,60,45,-1.76217139591459,1,0.566389200000231,0.0299472000001515,0.603410300000178,0.0172913381551982,1
36,6,851,700,70,-45,-1.76217139591459,1,0.642192600000271,0.0299620000000687,0.703641399999924,0.0172913381551982,0
3,6,852,40,4,-45,-1.76217139591459,-1,0.756569300000137,0.0299350000000231,0.0453962000001411,0.0172913381551982,1
32,6,853,620,62,45,-1.76217139591459,1,0.480371900000137,0.030019600000287,0.625438099999883,0.0172913381551982,1
8,6,854,140,14,45,-1.76217139591459,1,0.646393900000021,0.0299137000001792,0.139603199999783,0.0172913381551982,1
27,6,855,520,52,-45,-1.76217139591459,-1,0.602387200000067,0.030011999999715,0.519532900000286,0.0172913381551982,1
33,6,856,640,64,-45,-1.76217139591459,1,0.450017699999989,0.0300145000001066,0.639819099999841,0.0172913381551982,0
21,6,857,400,40,-45,-1.76217139591459,-1,0.516278599999623,0.0298863765538044,0.397746423446279,0.0172913381551982,1
36,6,858,700,70,-45,-1.76217139591459,-1,0.646318900000097,0.0300206000001708,0.699908399999913,0.0172913381551982,1
48,6,859,940,94,45,-1.76217139591459,1,0.566297999999733,0.0299936000001253,0.93995730000006,0.0172913381551982,1
47,6,860,920,92,45,-1.76217139591459,-1,0.700341599999774,0.0298428718642754,0.917510228135598,0.0172913381551982,0
