isi,block,trial,isi_ms,isi_frames,theta,log_cnt,resp,rt,stim_duration,blank_duration,cnt,correct
31,1,1,600,60,-45,-2.00200142164368,1,1.96256639994681,0.0299892000621185,0.599076299928129,0.00995402158941471,0
39,1,2,760,76,-45,-2.00200142164368,1,0.658148000016809,0.0300371999619529,0.75945390004199,0.00995402158941471,0
24,1,3,460,46,-45,-2.00200142164368,-1,0.578028499963693,0.0299886000575498,0.463818000047468,0.00995402158941471,1
45,1,4,880,88,45,-2.00200142164368,1,0.548432199982926,0.0298995000775903,0.885596100008115,0.00995402158941471,1
17,1,5,320,32,45,-2.00200142164368,1,0.42380970006343,0.0299837000202388,0.321590399951674,0.00995402158941471,1
44,1,6,860,86,45,-2.00200142164368,1,0.554352700011805,0.030024699983187,0.863515399978496,0.00995402158941471,1
21,1,7,400,40,45,-2.00200142164368,1,0.596210799994878,0.0299637001007795,0.406003599986434,0.00995402158941471,1
14,1,8,260,26,45,-2.00200142164368,-1,0.518352999933995,0.0299308000830933,0.259950799983926,0.00995402158941471,0
28,1,9,540,54,-45,-2.00200142164368,1,0.488518499885686,0.0300210999557748,0.545541599974968,0.00995402158941471,0
29,1,10,560,56,-45,-2.00200142164368,-1,0.422539900057018,0.0298517000628635,0.563815000001341,0.00995402158941471,1
20,1,11,380,38,-45,-2.00200142164368,-1,0.562359199975617,0.029999400023371,0.383781799930148,0.00995402158941471,1
15,1,12,280,28,45,-2.00200142164368,1,0.435993499937467,0.0299241804750636,0.278249319526367,0.00995402158941471,1
23,1,13,440,44,-45,-2.00200142164368,-1,0.417703000013717,0.0300778000382707,0.439974599983543,0.00995402158941471,1
34,1,14,660,66,-45,-2.00200142164368,-1,0.408191900001839,0.0298950999276713,0.666208500042558,0.00995402158941471,1
37,1,15,720,72,-45,-2.00200142164368,1,0.362030600081198,0.030083299963735,0.719969499972649,0.00995402158941471,0
2,1,16,20,2,45,-2.00200142164368,1,1.61993709998205,0.0299684000201523,0.0221529999980703,0.00995402158941471,1
7,1,17,120,12,-45,-2.00200142164368,-1,0.576182099990547,0.0300075999693945,0.121816899976693,0.00995402158941471,1
36,1,18,700,70,45,-2.00200142164368,1,0.452093599946238,0.0299990000203252,0.702089100028388,0.00995402158941471,1
50,1,19,980,98,45,-2.00200142164368,1,0.472083300002851,0.0299028999870643,0.978089199983515,0.00995402158941471,1
43,1,20,840,84,-45,-2.00200142164368,1,0.477558700018562,0.0299815000034869,0.844125399948098,0.00995402158941471,0
32,1,21,620,62,-45,-2.00200142164368,-1,0.575821900041774,0.0299607999622822,0.618109000031836,0.00995402158941471,1
35,1,22,680,68,45,-2.00200142164368,1,0.431995799997821,0.0299370000138879,0.681724700029008,0.00995402158941471,1
51,1,23,1000,100,45,-2.00200142164368,1,0.619388199993409,0.0298530586296692,0.998344041407108,0.00995402158941471,1
40,1,24,780,78,-45,-2.00200142164368,-1,0.433831200003624,0.0298264999873936,0.7843718000222,0.00995402158941471,1
42,1,25,820,82,45,-2.00200142164368,1,0.425783199956641,0.0299847000278533,0.824196200002916,0.00995402158941471,1
24,1,26,460,46,45,-2.00200142164368,1,0.427332499995828,0.0300247999839485,0.462305699940771,0.00995402158941471,1
39,1,27,760,76,-45,-2.00200142164368,1,0.58528420003131,0.0299960999982432,0.760319099994376,0.00995402158941471,0
28,1,28,540,54,45,-2.00200142164368,1,0.517582300002687,0.0298018999164924,0.540529599995352,0.00995402158941471,1
2,1,29,20,2,-45,-2.00200142164368,-1,0.887535599991679,0.0299685000209138,0.0186162000754848,0.00995402158941471,1
33,1,30,640,64,-45,-2.00200142164368,1,0.469589699991047,0.0299960999982432,0.644760799943469,0.00995402158941471,0
15,1,31,280,28,-45,-2.00200142164368,-1,0.503443500027061,0.0299834999023005,0.282321900012903,0.00995402158941471,1
9,1,32,160,16,-45,-2.00200142164368,1,0.52763619995676,0.0300839999690652,0.162524099927396,0.00995402158941471,0
26,1,33,500,50,45,-2.00200142164368,1,0.558997899992391,0.0298973999451846,0.498597000027075,0.00995402158941471,1
3,1,34,40,4,45,-2.00200142164368,1,0.511244700057432,0.0299255999270827,0.0427899999776855,0.00995402158941471,1
47,1,35,920,92,-45,-2.00200142164368,-1,0.497337599983439,0.0299606000771746,0.920887499931268,0.00995402158941471,1
12,1,36,220,22,-45,-2.00200142164368,1,0.529065700015053,0.029908400028944,0.216606699978001,0.00995402158941471,0
16,1,37,300,30,-45,-2.00200142164368,1,0.485382899991237,0.0300812999485061,0.308514500036836,0.00995402158941471,0
19,1,38,360,36,45,-2.00200142164368,1,0.453240499948151,0.0300143999047577,0.364878399996087,0.00995402158941471,1
41,1,39,800,80,45,-2.00200142164368,1,0.437084599980153,0.029973299941048,0.804769800044596,0.00995402158941471,1
8,1,40,140,14,45,-2.00200142164368,-1,0.961467499961145,0.0299687000224367,0.144745700061321,0.00995402158941471,0
30,1,41,580,58,-45,-2.00200142164368,1,0.54504250001628,0.0299977000104263,0.584748600027524,0.00995402158941471,0
38,1,42,740,74,45,-2.00200142164368,1,0.465229599969462,0.0299180999863893,0.73707530007232,0.00995402158941471,1
10,1,43,180,18,45,-2.00200142164368,1,0.763206000090577,0.0298515000613406,0.183157799998298,0.00995402158941471,1
38,1,44,740,74,45,-2.00200142164368,1,0.454589099972509,0.0299955999944359,0.73925050010439,0.00995402158941471,1
34,1,45,660,66,45,-2.00200142164368,1,0.496552099939436,0.0299081000266597,0.657356999930926,0.00995402158941471,1
42,1,46,820,82,-45,-2.00200142164368,1,0.96259619994089,0.0299508000025526,0.822671799920499,0.00995402158941471,0
19,1,47,360,36,-45,-2.00200142164368,1,0.479034600080922,0.0299752000719309,0.362957999925129,0.00995402158941471,0
13,1,48,240,24,-45,-2.00200142164368,-1,0.911656299955212,0.0299232000252232,0.243123600026593,0.00995402158941471,1
32,1,49,620,62,45,-2.00200142164368,1,0.478660599910654,0.0299982000142336,0.619076799950562,0.00995402158941471,1
20,1,50,380,38,-45,-2.00200142164368,1,0.556783200008795,0.0300549999810755,0.38130759994965,0.00995402158941471,0
48,1,51,940,94,-45,-2.00200142164368,-1,0.961384300026111,0.0299895999487489,0.945065199979581,0.00995402158941471,1
34,1,52,660,66,-45,-2.00200142164368,1,0.534561099950224,0.0300219999626279,0.659165099961683,0.00995402158941471,0
4,1,53,60,6,45,-2.00200142164368,1,0.696944799972698,0.0400064999703318,0.06336440006271,0.00995402158941471,1
22,1,54,420,42,45,-2.00200142164368,1,0.600419500027783,0.0299119999399409,0.425286400015466,0.00995402158941471,1
15,1,55,280,28,-45,-2.00200142164368,-1,0.546406699926592,0.0299585999455303,0.279270100058056,0.00995402158941471,1
42,1,56,820,82,45,-2.00200142164368,1,0.476737300050445,0.0299894999479875,0.821382199996151,0.00995402158941471,1
4,1,57,60,6,45,-2.00200142164368,1,0.50667929998599,0.0299135999521241,0.0636276000877842,0.00995402158941471,1
40,1,58,780,78,-45,-2.00200142164368,1,0.438663500011899,0.0299761999631301,0.784541800036095,0.00995402158941471,0
27,1,59,520,52,45,-2.00200142164368,1,0.448566500097513,0.0300086000934243,0.520982699934393,0.00995402158941471,1
20,1,60,380,38,-45,-2.00200142164368,-1,0.474562899908051,0.0299568000482395,0.383525199955329,0.00995402158941471,1
25,1,61,480,48,45,-2.00200142164368,1,0.424451099941507,0.0300394999794662,0.481802099966444,0.00995402158941471,1
45,1,62,880,88,45,-2.00200142164368,1,0.552619299967773,0.0299998000264168,0.881416799966246,0.00995402158941471,1
29,1,63,560,56,45,-2.00200142164368,1,0.454432500060648,0.0300297000212595,0.563541500014253,0.00995402158941471,1
30,1,64,580,58,-45,-2.00200142164368,1,0.424508899915963,0.029973000055179,0.58581039996352,0.00995402158941471,0
18,1,65,340,34,-45,-2.00200142164368,1,0.50450650008861,0.0299815000034869,0.345241500064731,0.00995402158941471,0
36,1,66,700,70,-45,-2.00200142164368,1,0.600097500020638,0.0299130805069581,0.697892819531262,0.00995402158941471,0
45,1,67,880,88,-45,-2.00200142164368,1,0.506275399937294,0.0299545000307262,0.879594799946062,0.00995402158941471,0
11,1,68,200,20,45,-2.00200142164368,1,0.454324900056235,0.0299339001066983,0.204019199940376,0.00995402158941471,1
9,1,69,160,16,45,-2.00200142164368,1,0.889826299971901,0.0299275999423116,0.159793900093064,0.00995402158941471,1
46,1,70,900,90,45,-2.00200142164368,1,0.426324100000784,0.0299444000702351,0.903722899965942,0.00995402158941471,1
10,1,71,180,18,-45,-2.00200142164368,1,0.476303500006907,0.0299146000761539,0.181778799975291,0.00995402158941471,0
31,1,72,600,60,-45,-2.00200142164368,1,0.381426299922168,0.0299085000297055,0.598180099972524,0.00995402158941471,0
18,1,73,340,34,45,-2.00200142164368,1,0.464047899935395,0.0299304999643937,0.346141400048509,0.00995402158941471,1
48,1,74,940,94,-45,-2.00200142164368,1,0.825901000062004,0.0299823000095785,0.943964699981734,0.00995402158941471,0
10,1,75,180,18,-45,-2.00200142164368,1,0.563666200032458,0.03001350001432,0.182135900016874,0.00995402158941471,0
25,1,76,480,48,-45,-2.00200142164368,-1,0.58260560000781,0.0299191999947652,0.483985199942254,0.00995402158941471,1
46,1,77,900,90,45,-2.00200142164368,1,0.44791330001317,0.0300264999968931,0.906282400013879,0.00995402158941471,1
1,1,78,0,0,-45,-2.00200142164368,1,0.64386499999091,0.0299862999236211,0.00620950001757592,0.00995402158941471,0
14,1,79,260,26,45,-2.00200142164368,1,0.431574500049464,0.0298907000105828,0.258263799943961,0.00995402158941471,1
51,1,80,1000,100,45,-2.00200142164368,1,0.435487100039609,0.0299935999792069,1.00600109994411,0.00995402158941471,1
19,1,81,360,36,45,-2.00200142164368,1,0.512030099984258,0.0299063000129536,0.362412399961613,0.00995402158941471,1
47,1,82,920,92,45,-2.00200142164368,1,0.497473899973556,0.0300389000913128,0.920298199984245,0.00995402158941471,1
8,1,83,140,14,-45,-2.00200142164368,1,0.594293300062418,0.0300010999199003,0.144309800001793,0.00995402158941471,0
5,1,84,80,8,-45,-2.00200142164368,-1,0.57358840003144,0.0299290999537334,0.0842799000674859,0.00995402158941471,1
49,1,85,960,96,-45,-2.00200142164368,1,0.465217699995264,0.0300021000439301,0.960537999984808,0.00995402158941471,0
16,1,86,300,30,-45,-2.00200142164368,1,0.645506300032139,0.0298955268226564,0.299428973230533,0.00995402158941471,0
44,1,87,860,86,-45,-2.00200142164368,-1,0.523705100058578,0.0299925999715924,0.862186299986206,0.00995402158941471,1
22,1,88,420,42,45,-2.00200142164368,1,0.447874699952081,0.0298248999752104,0.418633099994622,0.00995402158941471,1
46,1,89,900,90,45,-2.00200142164368,-1,0.887350099976175,0.0298431999981403,0.898602699977346,0.00995402158941471,0
7,1,90,120,12,-45,-2.00200142164368,1,0.73359039996285,0.0298827000660822,0.11648929992225,0.00995402158941471,0
21,1,91,400,40,-45,-2.00200142164368,-1,1.44927300000563,0.0299663000041619,0.400602200068533,0.00995402158941471,1
3,1,92,40,4,45,-2.00200142164368,1,0.849293800070882,0.0299580000573769,0.040441200020723,0.00995402158941471,1
18,1,93,340,34,45,-2.00200142164368,-1,0.697441500029527,0.0299440999515355,0.34469940001145,0.00995402158941471,0
30,1,94,580,58,45,-2.00200142164368,1,0.703404500032775,0.0300518999574706,0.586407299968414,0.00995402158941471,1
9,1,95,160,16,-45,-2.00200142164368,-1,0.669526399928145,0.0299792001023889,0.164453299948946,0.00995402158941471,1
27,1,96,520,52,45,-2.00200142164368,-1,0.603451799950562,0.030039600096643,0.526554199983366,0.00995402158941471,0
17,1,97,320,32,45,-2.00200142164368,1,0.566970999934711,0.0299954999936745,0.322737899958156,0.00995402158941471,1
37,1,98,720,72,45,-2.00200142164368,1,0.573138599982485,0.0298498950432986,0.717156004859135,0.00995402158941471,1
16,1,99,300,30,-45,-2.00200142164368,1,1.01486300001852,0.0299011999741197,0.299013499985449,0.00995402158941471,0
8,1,100,140,14,45,-2.00200142164368,1,0.607291299966164,0.0298284563468769,0.139193843700923,0.00995402158941471,1
49,1,101,960,96,45,-2.00200142164368,1,0.735923200030811,0.0300210999557748,0.963083500042558,0.00995402158941471,1
35,1,102,680,68,45,-2.00200142164368,1,0.644899600069039,0.0299967000028118,0.676854800083674,0.00995402158941471,1
2,1,103,20,2,45,-2.00200142164368,-1,0.917224999982864,0.029810499981977,0.0209074000595137,0.00995402158941471,0
29,1,104,560,56,-45,-2.00200142164368,-1,0.606694799964316,0.0300546999787912,0.563157800002955,0.00995402158941471,1
6,1,105,100,10,-45,-2.00200142164368,-1,0.536783699993975,0.0299237999133766,0.104920700076036,0.00995402158941471,1
41,1,106,800,80,-45,-2.00200142164368,-1,0.462570899981074,0.0299992000218481,0.803256100043654,0.00995402158941471,1
6,1,107,100,10,45,-2.00200142164368,1,0.660781300044619,0.029927600058727,0.100942399934866,0.00995402158941471,1
12,1,108,220,22,45,-2.00200142164368,-1,0.504882799927145,0.0300021999282762,0.225026000058278,0.00995402158941471,0
50,1,109,980,98,-45,-2.00200142164368,-1,0.404574899934232,0.0300818999530748,0.981262900051661,0.00995402158941471,1
6,1,110,100,10,-45,-2.00200142164368,-1,0.558505399967544,0.0300311000319198,0.0989801998948678,0.00995402158941471,1
7,1,111,120,12,45,-2.00200142164368,-1,0.444487800006755,0.0299353000009432,0.117157700005919,0.00995402158941471,0
36,1,112,700,70,-45,-2.00200142164368,-1,0.520541599951684,0.0298826220678166,0.697372977971099,0.00995402158941471,1
37,1,113,720,72,45,-2.00200142164368,-1,0.522288999985904,0.0300008999183774,0.719527799985372,0.00995402158941471,0
47,1,114,920,92,-45,-2.00200142164368,-1,0.924914499977604,0.0298987999558449,0.925300800008699,0.00995402158941471,1
11,1,115,200,20,-45,-2.00200142164368,-1,0.500737100024708,0.0298764000181109,0.197106699924916,0.00995402158941471,1
44,1,116,860,86,-45,-2.00200142164368,-1,0.698463199893013,0.0300979000749066,0.863196599995717,0.00995402158941471,1
35,1,117,680,68,-45,-2.00200142164368,-1,0.484750500065275,0.0301263000583276,0.685418399982154,0.00995402158941471,1
13,1,118,240,24,-45,-2.00200142164368,-1,0.548795999959111,0.0299718000460416,0.245277600013651,0.00995402158941471,1
43,1,119,840,84,45,-2.00200142164368,-1,0.442294999957085,0.0300486000487581,0.83947490004357,0.00995402158941471,0
5,1,120,80,8,-45,-2.00200142164368,-1,1.0563748999266,0.0300137000158429,0.0816892000148073,0.00995402158941471,1
23,1,121,440,44,-45,-2.00200142164368,-1,1.03051760001108,0.0300064999610186,0.443327600019984,0.00995402158941471,1
43,1,122,840,84,45,-2.00200142164368,1,0.604419199982658,0.0298563999822363,0.837618699995801,0.00995402158941471,1
40,1,123,780,78,-45,-2.00200142164368,1,0.588155300007202,0.0298539000796154,0.7815971999662,0.00995402158941471,0
48,1,124,940,94,-45,-2.00200142164368,-1,0.68831710005179,0.0299933000933379,0.945630999980494,0.00995402158941471,1
41,1,125,800,80,-45,-2.00200142164368,-1,0.454102799994871,0.0298357999417931,0.804021000047214,0.00995402158941471,1
25,1,126,480,48,45,-2.00200142164368,-1,0.531904899980873,0.0298355537233874,0.477724446333013,0.00995402158941471,0
12,1,127,220,22,45,-2.00200142164368,-1,0.576405099942349,0.0299677000148222,0.225866900058463,0.00995402158941471,0
14,1,128,260,26,-45,-2.00200142164368,-1,0.608263399917632,0.0299675000132993,0.265584900043905,0.00995402158941471,1
51,1,129,1000,100,45,-2.00200142164368,-1,0.626277899951674,0.0299898999510333,0.999789000023156,0.00995402158941471,0
5,1,130,80,8,-45,-2.00200142164368,1,0.814440399990417,0.0299309999682009,0.0838671000674367,0.00995402158941471,0
33,1,131,640,64,45,-2.00200142164368,1,0.524319799966179,0.0298655000515282,0.645975399995223,0.00995402158941471,1
3,1,132,40,4,-45,-2.00200142164368,-1,0.956236199941486,0.0300695999758318,0.0454487000824884,0.00995402158941471,1
31,1,133,600,60,45,-2.00200142164368,-1,0.884776299935766,0.0298488804837689,0.597734519513324,0.00995402158941471,0
1,1,134,0,0,-45,-2.00200142164368,-1,0.614215000066906,0.0299309999682009,0.00421779998578131,0.00995402158941471,1
26,1,135,500,50,-45,-2.00200142164368,-1,0.946110200020485,0.0299329999834299,0.503785800072365,0.00995402158941471,1
4,1,136,60,6,45,-2.00200142164368,-1,0.735751700005494,0.0298935999162495,0.0579151000129059,0.00995402158941471,0
11,1,137,200,20,-45,-2.00200142164368,1,0.782093499903567,0.0298981999512762,0.204249400063418,0.00995402158941471,0
23,1,138,440,44,45,-2.00200142164368,1,0.511750899953768,0.0298629000317305,0.442020400078036,0.00995402158941471,1
24,1,139,460,46,45,-2.00200142164368,-1,1.15379500004929,0.029941700049676,0.463925399933942,0.00995402158941471,0
27,1,140,520,52,45,-2.00200142164368,1,0.476607799995691,0.029947700095363,0.526274099946022,0.00995402158941471,1
1,1,141,0,0,-45,-2.00200142164368,1,0.679597500013188,0.0300456000259146,0.00222119991667569,0.00995402158941471,0
38,1,142,740,74,-45,-2.00200142164368,1,0.527943199966103,0.0300588000100106,0.745856199995615,0.00995402158941471,0
33,1,143,640,64,45,-2.00200142164368,1,0.545376099995337,0.0300382999703288,0.640313900075853,0.00995402158941471,1
49,1,144,960,96,-45,-2.00200142164368,-1,0.43977850000374,0.0299006000859663,0.962203099974431,0.00995402158941471,1
39,1,145,760,76,-45,-2.00200142164368,1,0.51919529994484,0.0300113999983296,0.762371300021186,0.00995402158941471,0
28,1,146,540,54,45,-2.00200142164368,1,0.703142500016838,0.0299919999670237,0.538513100007549,0.00995402158941471,1
50,1,147,980,98,-45,-2.00200142164368,-1,0.405730900005437,0.0299869999289513,0.980243099969812,0.00995402158941471,1
26,1,148,500,50,45,-2.00200142164368,1,0.599638100015,0.0299672000110149,0.506556499982253,0.00995402158941471,1
22,1,149,420,42,-45,-2.00200142164368,-1,0.519585400004871,0.0297758999513462,0.418524199980311,0.00995402158941471,1
13,1,150,240,24,-45,-2.00200142164368,1,0.58593820000533,0.0299961999990046,0.240432900027372,0.00995402158941471,0
21,1,151,400,40,-45,-2.00200142164368,-1,0.531306799966842,0.0299897999502718,0.406625300063752,0.00995402158941471,1
17,1,152,320,32,-45,-2.00200142164368,1,0.573425500071608,0.0299300999613479,0.324515199987218,0.00995402158941471,0
32,1,153,620,62,-45,-2.00200142164368,-1,0.469451899989508,0.0300021999282762,0.620396999991499,0.00995402158941471,1
23,2,154,440,44,-45,-2.00200142164368,-1,0.916548599954695,0.0300560999894515,0.445037600002252,0.00995402158941471,1
32,2,155,620,62,-45,-2.00200142164368,-1,0.513034900068305,0.0299252999247983,0.62515890004579,0.00995402158941471,1
32,2,156,620,62,-45,-2.00200142164368,-1,0.580504800076596,0.0299354000017047,0.621435399982147,0.00995402158941471,1
49,2,157,960,96,45,-2.00200142164368,1,0.524759800056927,0.0298958659404889,0.957664634101093,0.00995402158941471,1
10,2,158,180,18,-45,-2.00200142164368,-1,0.572414699941874,0.0298766000196338,0.181226299959235,0.00995402158941471,1
48,2,159,940,94,45,-2.00200142164368,1,0.486206599976867,0.03001350001432,0.939350200002082,0.00995402158941471,1
16,2,160,300,30,-45,-2.00200142164368,-1,0.498775699990802,0.0299242000328377,0.311366899986751,0.00995402158941471,1
15,2,161,280,28,45,-2.00200142164368,1,0.424224499962293,0.0299828998977318,0.281506200088188,0.00995402158941471,1
29,2,162,560,56,-45,-2.00200142164368,-1,0.536178900045343,0.0299505000002682,0.561516199959442,0.00995402158941471,1
31,2,163,600,60,45,-2.00200142164368,-1,0.448628599988297,0.0299989000195637,0.601632700068876,0.00995402158941471,0
27,2,164,520,52,-45,-2.00200142164368,-1,0.404725599917583,0.0299956999951974,0.525154300034046,0.00995402158941471,1
33,2,165,640,64,-45,-2.00200142164368,-1,0.462206099997275,0.0299165999749675,0.643357799970545,0.00995402158941471,1
7,2,166,120,12,-45,-2.00200142164368,-1,0.548260000068694,0.0299440000671893,0.125631600036286,0.00995402158941471,1
1,2,167,0,0,45,-2.00200142164368,1,0.482667900039814,0.029942600056529,0.00746180000714958,0.00995402158941471,1
29,2,168,560,56,-45,-2.00200142164368,-1,0.370396699989215,0.0299936000956222,0.559566699899733,0.00995402158941471,1
6,2,169,100,10,45,-2.00200142164368,1,0.656222400022671,0.0299888999434188,0.105725800036453,0.00995402158941471,1
3,2,170,40,4,-45,-2.00200142164368,-1,0.432709299959242,0.0299798999913037,0.0414989000419155,0.00995402158941471,1
22,2,171,420,42,-45,-2.00200142164368,1,0.640302599989809,0.029886299977079,0.425790300010704,0.00995402158941471,0
51,2,172,1000,100,-45,-2.00200142164368,-1,0.491999099962413,0.0299616000847891,1.00563339993823,0.00995402158941471,1
37,2,173,720,72,45,-2.00200142164368,1,0.420336499926634,0.0298804267076775,0.717998973210342,0.00995402158941471,1
27,2,174,520,52,45,-2.00200142164368,1,1.05027030000929,0.0299778999760747,0.519619799917564,0.00995402158941471,1
10,2,175,180,18,45,-2.00200142164368,-1,0.444237200077623,0.0299575999379158,0.181991800083779,0.00995402158941471,0
1,2,176,0,0,-45,-2.00200142164368,-1,0.648103000014089,0.0300339999375865,0.00155270006507635,0.00995402158941471,1
50,2,177,980,98,-45,-2.00200142164368,-1,0.469830800080672,0.0300095999846235,0.979995999950916,0.00995402158941471,1
9,2,178,160,16,45,-2.00200142164368,1,0.518242700025439,0.030017500044778,0.16364479996264,0.00995402158941471,1
21,2,179,400,40,-45,-2.00200142164368,1,0.732263099984266,0.0300024999305606,0.4056512999814,0.00995402158941471,0
11,2,180,200,20,-45,-2.00200142164368,-1,0.492368099978194,0.0299960999982432,0.205841499962844,0.00995402158941471,1
14,2,181,260,26,-45,-2.00200142164368,-1,0.528207199997269,0.029839631752111,0.25829186826013,0.00995402158941471,1
36,2,182,700,70,45,-2.00200142164368,-1,0.583883999963291,0.0301316999830306,0.698137499974109,0.00995402158941471,0
8,2,183,140,14,45,-2.00200142164368,-1,0.947812300059013,0.0300518999574706,0.1418211000273,0.00995402158941471,0
40,2,184,780,78,45,-2.00200142164368,1,0.985219100024551,0.0299262000480667,0.786145000020042,0.00995402158941471,1
29,2,185,560,56,-45,-2.00200142164368,1,0.554565600003116,0.0300311000319198,0.560290500055999,0.00995402158941471,0
47,2,186,920,92,-45,-2.00200142164368,-1,0.533811499946751,0.0300654000602663,0.924028799985535,0.00995402158941471,1
5,2,187,80,8,-45,-2.00200142164368,1,0.816165399970487,0.0298941000364721,0.0819750999798998,0.00995402158941471,0
30,2,188,580,58,-45,-2.00200142164368,1,1.41750049998518,0.0300416999962181,0.584000999922864,0.00995402158941471,0
16,2,189,300,30,45,-2.00200142164368,-1,1.1496486000251,0.0300069000804797,0.300050899968483,0.00995402158941471,0
41,2,190,800,80,45,-2.00200142164368,-1,0.531538500101306,0.0299782999791205,0.798094999976456,0.00995402158941471,0
17,2,191,320,32,-45,-2.00200142164368,-1,0.655662599951029,0.0298924000235274,0.322292899945751,0.00995402158941471,1
38,2,192,740,74,-45,-2.00200142164368,-1,0.513473900035024,0.0300289000151679,0.744109600083902,0.00995402158941471,1
34,2,193,660,66,45,-2.00200142164368,1,0.863831000053324,0.0300295999040827,0.666354099987075,0.00995402158941471,1
4,2,194,60,6,-45,-2.00200142164368,-1,0.589412300032564,0.0299273999407887,0.0601906999945641,0.00995402158941471,1
15,2,195,280,28,-45,-2.00200142164368,1,0.539511699927971,0.0299990999046713,0.278287500026636,0.00995402158941471,0
48,2,196,940,94,45,-2.00200142164368,-1,0.531847300007939,0.0299589999485761,0.942631000070833,0.00995402158941471,0
19,2,197,360,36,45,-2.00200142164368,1,0.825672899954952,0.0299190999940038,0.360595700098202,0.00995402158941471,1
28,2,198,540,54,45,-2.00200142164368,-1,0.433745400048792,0.0298403999768198,0.544407200068235,0.00995402158941471,0
4,2,199,60,6,-45,-2.00200142164368,1,0.547777400002815,0.0298529000720009,0.0624764999374747,0.00995402158941471,0
34,2,200,660,66,45,-2.00200142164368,-1,0.505843500024639,0.0299836000194773,0.656458799960092,0.00995402158941471,0
5,2,201,80,8,-45,-2.00200142164368,-1,0.673653300036676,0.029980199993588,0.0806353000225499,0.00995402158941471,1
50,2,202,980,98,45,-2.00200142164368,1,0.793531799921766,0.0299846000270918,0.984857200062834,0.00995402158941471,1
3,2,203,40,4,45,-2.00200142164368,-1,0.503429600037634,0.0299246000358835,0.0445459999609739,0.00995402158941471,0
28,2,204,540,54,-45,-2.00200142164368,-1,0.593505800003186,0.0298356999410316,0.544742800062522,0.00995402158941471,1
37,2,205,720,72,-45,-2.00200142164368,-1,0.621036700089462,0.0298863999778405,0.716708200052381,0.00995402158941471,1
11,2,206,200,20,-45,-2.00200142164368,-1,0.549462499911897,0.029990200069733,0.196855499991216,0.00995402158941471,1
2,2,207,20,2,45,-2.00200142164368,-1,0.66144609998446,0.0299950999906287,0.0206140000373125,0.00995402158941471,0
12,2,208,220,22,45,-2.00200142164368,-1,0.721062700031325,0.0299220536835492,0.217169146286324,0.00995402158941471,0
47,2,209,920,92,45,-2.00200142164368,1,0.565168499946594,0.0298400999745354,0.917192799970508,0.00995402158941471,1
22,2,210,420,42,-45,-2.00200142164368,1,1.83137599995825,0.0299303999636322,0.426811200100929,0.00995402158941471,0
9,2,211,160,16,-45,-2.00200142164368,-1,0.516888000071049,0.0299141999566928,0.157256300095469,0.00995402158941471,1
42,2,212,820,82,-45,-2.00200142164368,1,0.755099599948153,0.0300433000084013,0.82115169998724,0.00995402158941471,0
6,2,213,100,10,-45,-2.00200142164368,-1,0.617108899983577,0.0299662998877466,0.105161200044677,0.00995402158941471,1
17,2,214,320,32,45,-2.00200142164368,-1,0.917121100006625,0.0298503000522032,0.317386299953796,0.00995402158941471,0
18,2,215,340,34,45,-2.00200142164368,-1,0.542676799930632,0.0299250999232754,0.33915950008668,0.00995402158941471,0
18,2,216,340,34,45,-2.00200142164368,-1,0.556815100018866,0.0300250001018867,0.341332399984822,0.00995402158941471,0
21,2,217,400,40,-45,-2.00200142164368,-1,0.611031299922615,0.029975438141264,0.400968599948101,0.00995402158941471,1
28,2,218,540,54,-45,-2.00200142164368,-1,0.518788499990478,0.029889400000684,0.538988800020888,0.00995402158941471,1
44,2,219,860,86,-45,-2.00200142164368,-1,0.634990400052629,0.0300083999754861,0.863119299989194,0.00995402158941471,1
48,2,220,940,94,-45,-2.00200142164368,1,0.433223400032148,0.0299324999796227,0.945490200072527,0.00995402158941471,0
43,2,221,840,84,-45,-2.00200142164368,1,0.532885299995542,0.0299069000175223,0.837486399919726,0.00995402158941471,0
38,2,222,740,74,45,-2.00200142164368,1,0.508747599902563,0.0300124000059441,0.741460399935022,0.00995402158941471,1
13,2,223,240,24,45,-2.00200142164368,-1,0.501123100053519,0.0298526000697166,0.244961199932732,0.00995402158941471,0
39,2,224,760,76,-45,-2.00200142164368,-1,0.948950799996965,0.0299247000366449,0.765517399995588,0.00995402158941471,1
30,2,225,580,58,45,-2.00200142164368,-1,0.686618900042959,0.0299038999946788,0.587519000051543,0.00995402158941471,0
16,2,226,300,30,-45,-2.00200142164368,1,0.512754200026393,0.0299931999761611,0.305309900082648,0.00995402158941471,0
2,2,227,20,2,45,-2.00200142164368,-1,1.2667577000102,0.030126899946481,0.0155350000131875,0.00995402158941471,0
47,2,228,920,92,-45,-2.00200142164368,-1,0.558620500029065,0.0299138000700623,0.923812699969858,0.00995402158941471,1
32,2,229,620,62,45,-2.00200142164368,-1,0.458476300002076,0.0300224999664351,0.623751600040123,0.00995402158941471,0
17,2,230,320,32,45,-2.00200142164368,1,0.6201009999495,0.0299768000841141,0.325478499988094,0.00995402158941471,1
24,2,231,460,46,45,-2.00200142164368,-1,0.578031599987298,0.0300640999339521,0.463460500002839,0.00995402158941471,0
36,2,232,700,70,45,-2.00200142164368,1,0.658181499922648,0.0299694000277668,0.703755599912256,0.00995402158941471,1
26,2,233,500,50,45,-2.00200142164368,1,0.863945999997668,0.0298488268163055,0.497677973238751,0.00995402158941471,1
7,2,234,120,12,45,-2.00200142164368,1,0.744524100096896,0.0298376999562606,0.121984399971552,0.00995402158941471,1
45,2,235,880,88,-45,-2.00200142164368,1,0.502448700019158,0.0299719999311492,0.88342160009779,0.00995402158941471,0
40,2,236,780,78,-45,-2.00200142164368,1,0.690004899981432,0.0300121000036597,0.783591899904422,0.00995402158941471,0
46,2,237,900,90,-45,-2.00200142164368,1,0.564111300045624,0.0299638999858871,0.901722299982794,0.00995402158941471,0
34,2,238,660,66,45,-2.00200142164368,-1,0.913914900040254,0.0299502999987453,0.660818599979393,0.00995402158941471,0
13,2,239,240,24,-45,-2.00200142164368,-1,0.548432199982926,0.0299814000027254,0.24585589999333,0.00995402158941471,1
24,2,240,460,46,45,-2.00200142164368,1,0.464266699971631,0.0299715999281034,0.466028700000606,0.00995402158941471,1
51,2,241,1000,100,-45,-2.00200142164368,-1,1.53975370002445,0.0300366000737995,1.00611459999345,0.00995402158941471,1
25,2,242,480,48,45,-2.00200142164368,1,0.444117499981076,0.0298654000507668,0.478032300015911,0.00995402158941471,1
43,2,243,840,84,-45,-2.00200142164368,-1,0.508034800062887,0.030026699998416,0.84590690000914,0.00995402158941471,1
25,2,244,480,48,45,-2.00200142164368,-1,0.643993599922396,0.0300463000312448,0.486060500028543,0.00995402158941471,0
31,2,245,600,60,45,-2.00200142164368,-1,1.19411519996356,0.0299294999567792,0.600283400039189,0.00995402158941471,0
35,2,246,680,68,-45,-2.00200142164368,-1,0.48773799999617,0.0299650999950245,0.681958199944347,0.00995402158941471,1
18,2,247,340,34,-45,-2.00200142164368,-1,0.576058999984525,0.0299683000193909,0.346176199964248,0.00995402158941471,1
23,2,248,440,44,45,-2.00200142164368,1,0.65181810001377,0.0299773999722674,0.438175000017509,0.00995402158941471,1
10,2,249,180,18,-45,-2.00200142164368,-1,0.567486900021322,0.0298582999967039,0.178428800078109,0.00995402158941471,1
23,2,250,440,44,-45,-2.00200142164368,-1,0.701437700074166,0.0299925999715924,0.444220000063069,0.00995402158941471,1
37,2,251,720,72,45,-2.00200142164368,-1,0.505372400046326,0.0299971998902038,0.720482400036417,0.00995402158941471,0
41,2,252,800,80,-45,-2.00200142164368,-1,0.499724599998444,0.0299754999577999,0.80655310000293,0.00995402158941471,1
33,2,253,640,64,-45,-2.00200142164368,-1,0.57110369997099,0.0298969220602885,0.638378177885897,0.00995402158941471,1
25,2,254,480,48,45,-2.00200142164368,1,0.383587600081228,0.0298986000707373,0.482460799976252,0.00995402158941471,1
8,2,255,140,14,45,-2.00200142164368,1,0.575272200047038,0.0299697000300512,0.146534899948165,0.00995402158941471,1
49,2,256,960,96,-45,-2.00200142164368,1,0.473750500008464,0.0299624999752268,0.960731699946336,0.00995402158941471,0
33,2,257,640,64,-45,-2.00200142164368,1,0.527547799982131,0.0300530000822619,0.642300999956205,0.00995402158941471,0
15,2,258,280,28,45,-2.00200142164368,1,0.539906900026836,0.0299028001027182,0.286564799956977,0.00995402158941471,1
5,2,259,80,8,45,-2.00200142164368,-1,0.507417800021358,0.0299478317610919,0.0786406683037058,0.00995402158941471,0
14,2,260,260,26,45,-2.00200142164368,-1,0.793249300098978,0.0298670999472961,0.264556800015271,0.00995402158941471,0
22,2,261,420,42,-45,-2.00200142164368,-1,0.495519099989906,0.0299241000320762,0.426573199918494,0.00995402158941471,1
24,2,262,460,46,45,-2.00200142164368,1,0.409257699968293,0.029963199980557,0.464242900023237,0.00995402158941471,1
35,2,263,680,68,45,-2.00200142164368,-1,0.309711300069466,0.029903499991633,0.67674150003586,0.00995402158941471,0
20,2,264,380,38,45,-2.00200142164368,-1,0.665196300018579,0.0299438999500126,0.376980800065212,0.00995402158941471,0
42,2,265,820,82,45,-2.00200142164368,-1,0.641518299933523,0.0300106999929994,0.824600600055419,0.00995402158941471,0
4,2,266,60,6,-45,-2.00200142164368,-1,0.627377400058322,0.0298965000547469,0.0627368999412283,0.00995402158941471,1
7,2,267,120,12,45,-2.00200142164368,-1,0.467284899903461,0.030002300045453,0.118674899917096,0.00995402158941471,0
51,2,268,1000,100,45,-2.00200142164368,-1,1.30933199997526,0.0298500000499189,1.00502789998427,0.00995402158941471,0
44,2,269,860,86,45,-2.00200142164368,1,0.732799800112844,0.0300695999758318,0.861022300086915,0.00995402158941471,1
11,2,270,200,20,45,-2.00200142164368,-1,0.559534400003031,0.029866199940443,0.202962100040168,0.00995402158941471,0
1,2,271,0,0,-45,-2.00200142164368,-1,0.829591499990784,0.0299894999479875,0.00484840001445264,0.00995402158941471,1
21,2,272,400,40,-45,-2.00200142164368,1,0.356787099968642,0.0299189073266461,0.397026992635801,0.00995402158941471,0
50,2,273,980,98,45,-2.00200142164368,-1,0.427053899969906,0.030080100055784,0.982728599919938,0.00995402158941471,0
6,2,274,100,10,45,-2.00200142164368,1,0.587230299948715,0.0299555000383407,0.102883699932136,0.00995402158941471,1
44,2,275,860,86,-45,-2.00200142164368,1,0.727139000082389,0.0300158000318334,0.859166400041431,0.00995402158941471,0
26,2,276,500,50,45,-2.00200142164368,1,0.505196499987505,0.0299635999836028,0.50495500001125,0.00995402158941471,1
39,2,277,760,76,45,-2.00200142164368,-1,0.410622600000352,0.0299168707570061,0.759447929216549,0.00995402158941471,0
45,2,278,880,88,-45,-2.00200142164368,1,0.357059200061485,0.0300597000168636,0.884828999987803,0.00995402158941471,0
40,2,279,780,78,-45,-2.00200142164368,-1,0.460635099909268,0.0300002999138087,0.780858300044201,0.00995402158941471,1
3,2,280,40,4,45,-2.00200142164368,1,1.78509570006281,0.0299116000533104,0.0411660999525338,0.00995402158941471,1
8,2,281,140,14,45,-2.00200142164368,1,0.608763600001112,0.0299006487475708,0.137618251261301,0.00995402158941471,1
20,2,282,380,38,45,-2.00200142164368,1,0.51039710000623,0.0299726000521332,0.379200899973512,0.00995402158941471,1
19,2,283,360,36,45,-2.00200142164368,1,0.518710099975578,0.0299205000046641,0.363209899980575,0.00995402158941471,1
20,2,284,380,38,45,-2.00200142164368,-1,1.11880260007456,0.0299325999803841,0.379605800029822,0.00995402158941471,0
12,2,285,220,22,-45,-2.00200142164368,-1,0.762519100098871,0.0299590999493375,0.223455900093541,0.00995402158941471,1
9,2,286,160,16,45,-2.00200142164368,-1,0.6025771999266,0.029973000055179,0.159406099934131,0.00995402158941471,0
38,2,287,740,74,45,-2.00200142164368,1,0.414315600064583,0.0298541999654844,0.739709399989806,0.00995402158941471,1
27,2,288,520,52,45,-2.00200142164368,1,0.476068299962208,0.0299343999940902,0.51776910002809,0.00995402158941471,1
13,2,289,240,24,45,-2.00200142164368,1,0.476579199894331,0.0297550171380863,0.237595882848836,0.00995402158941471,1
46,2,290,900,90,45,-2.00200142164368,-1,0.382241700077429,0.0299934999784455,0.899758900050074,0.00995402158941471,0
2,2,291,20,2,-45,-2.00200142164368,-1,1.33292610000353,0.0299071000190452,0.0217692999867722,0.00995402158941471,1
43,2,292,840,84,45,-2.00200142164368,1,0.494420300005004,0.0300803000573069,0.843431400018744,0.00995402158941471,1
12,2,293,220,22,45,-2.00200142164368,-1,0.846426000003703,0.0299660000018775,0.219879599986598,0.00995402158941471,0
31,2,294,600,60,-45,-2.00200142164368,-1,0.499946900061332,0.02985701081343,0.605860789190046,0.00995402158941471,1
19,2,295,360,36,45,-2.00200142164368,1,0.54862969997339,0.02994509995915,0.36611509998329,0.00995402158941471,1
35,2,296,680,68,45,-2.00200142164368,1,0.412144100060686,0.029812595108524,0.678219604888,0.00995402158941471,1
46,2,297,900,90,-45,-2.00200142164368,1,0.576124000013806,0.0299461999675259,0.905880599981174,0.00995402158941471,0
49,2,298,960,96,45,-2.00200142164368,1,0.610379900084808,0.0299727999372408,0.960158600006253,0.00995402158941471,1
41,2,299,800,80,45,-2.00200142164368,1,0.563849100028165,0.0299227000214159,0.805976100033149,0.00995402158941471,1
39,2,300,760,76,-45,-2.00200142164368,1,0.779817800037563,0.0299039317760617,0.758000968256965,0.00995402158941471,0
26,2,301,500,50,45,-2.00200142164368,1,0.873682499979623,0.0299621999729425,0.503980200039223,0.00995402158941471,1
14,2,302,260,26,45,-2.00200142164368,-1,0.773883000016212,0.0300235999748111,0.260298199951649,0.00995402158941471,0
42,2,303,820,82,45,-2.00200142164368,-1,0.603971799951978,0.0300086999777704,0.822099399985746,0.00995402158941471,0
45,2,304,880,88,45,-2.00200142164368,-1,1.04601739998907,0.029957800055854,0.883902000030503,0.00995402158941471,0
30,2,305,580,58,-45,-2.00200142164368,1,0.621482299990021,0.0299968000035733,0.580163800041191,0.00995402158941471,0
36,2,306,700,70,45,-2.00200142164368,1,0.525892200064845,0.0300025000469759,0.700295699993148,0.00995402158941471,1
16,3,307,300,30,45,-2.00200142164368,1,0.543352200067602,0.030015850905329,0.298082645633258,0.00995402158941471,1
43,3,308,840,84,45,-2.00200142164368,1,0.571800399920903,0.0299645999912173,0.845716300071217,0.00995402158941471,1
19,3,309,360,36,45,-2.00200142164368,1,0.575917499954812,0.0299614999676123,0.361823600018397,0.00995402158941471,1
12,3,310,220,22,45,-2.00200142164368,1,0.557750700041652,0.030006300075911,0.219863699981943,0.00995402158941471,1
36,3,311,700,70,-45,-2.00200142164368,1,0.4560291999951,0.0298673659563065,0.698248633998446,0.00995402158941471,0
47,3,312,920,92,-45,-2.00200142164368,-1,0.428153100074269,0.0300133000127971,0.925750299938954,0.00995402158941471,1
11,3,313,200,20,-45,-2.00200142164368,1,0.642335700104013,0.0300307999132201,0.200102300033905,0.00995402158941471,0
51,3,314,1000,100,-45,-2.00200142164368,1,0.591997399926186,0.0299149999627843,1.00200330000371,0.00995402158941471,0
15,3,315,280,28,-45,-2.00200142164368,1,0.477620499907061,0.0299022999824956,0.284242099965923,0.00995402158941471,0
41,3,316,800,80,45,-2.00200142164368,1,0.495731399976648,0.0301095000468194,0.801823299960233,0.00995402158941471,1
18,3,317,340,34,-45,-2.00200142164368,1,0.519633000018075,0.030028700013645,0.346093200030737,0.00995402158941471,0
2,3,318,20,2,45,-2.00200142164368,1,0.556038600043394,0.0299886999418959,0.0220949000213295,0.00995402158941471,1
32,3,319,620,62,45,-2.00200142164368,1,0.367524100001901,0.0299724000506103,0.618401999934576,0.00995402158941471,1
20,3,320,380,38,-45,-2.00200142164368,1,0.543668100028299,0.0299044999992475,0.378446300048381,0.00995402158941471,0
48,3,321,940,94,45,-2.00200142164368,1,0.477852700045332,0.0300051999511197,0.940406100009568,0.00995402158941471,1
17,3,322,320,32,-45,-2.00200142164368,1,0.447934500058182,0.0300426000030711,0.322065699961968,0.00995402158941471,0
48,3,323,940,94,45,-2.00200142164368,-1,0.455487599945627,0.0299880999373272,0.946389800054021,0.00995402158941471,0
45,3,324,880,88,45,-2.00200142164368,-1,0.386197799933143,0.0299804999958724,0.884487999952398,0.00995402158941471,0
50,3,325,980,98,45,-2.00200142164368,-1,0.367447199998423,0.0299069000175223,0.978527700062841,0.00995402158941471,0
22,3,326,420,42,45,-2.00200142164368,1,0.423845199984498,0.0299869000446051,0.418353699962609,0.00995402158941471,1
24,3,327,460,46,-45,-2.00200142164368,1,0.42250929994043,0.0297879999270663,0.460052500013262,0.00995402158941471,0
45,3,328,880,88,45,-2.00200142164368,1,0.497354099992663,0.0300594000145793,0.880151799996383,0.00995402158941471,1
15,3,329,280,28,45,-2.00200142164368,1,0.509596899966709,0.0299481999827549,0.284492100006901,0.00995402158941471,1
9,3,330,160,16,45,-2.00200142164368,1,0.539769500028342,0.029933899990283,0.166219500009902,0.00995402158941471,1
31,3,331,600,60,-45,-2.00200142164368,1,0.617661900003441,0.0300235999748111,0.600352799985558,0.00995402158941471,0
37,3,332,720,72,45,-2.00200142164368,1,0.505221499945037,0.0300965000642464,0.720204899902456,0.00995402158941471,1
29,3,333,560,56,-45,-2.00200142164368,1,0.471828099922277,0.0298954999307171,0.562500100000761,0.00995402158941471,0
5,3,334,80,8,-45,-2.00200142164368,1,0.547472500009462,0.0299103000434116,0.0788719999836758,0.00995402158941471,0
41,3,335,800,80,45,-2.00200142164368,1,0.54113300004974,0.0299431999446824,0.796597799984738,0.00995402158941471,1
33,3,336,640,64,45,-2.00200142164368,1,0.553051299997605,0.0299807999981567,0.640515599981882,0.00995402158941471,1
24,3,337,460,46,-45,-2.00200142164368,1,0.559034200035967,0.0300362000707537,0.466409899992868,0.00995402158941471,0
4,3,338,60,6,45,-2.00200142164368,1,0.539106799988076,0.0299878999358043,0.0625894999830052,0.00995402158941471,1
42,3,339,820,82,-45,-2.00200142164368,1,0.533488600049168,0.0300560999894515,0.820776000036858,0.00995402158941471,0
38,3,340,740,74,45,-2.00200142164368,1,1.02098289993592,0.0300387000897899,0.740634399931878,0.00995402158941471,1
21,3,341,400,40,45,-2.00200142164368,1,0.429477999918163,0.0299916000803933,0.404891500016674,0.00995402158941471,1
39,3,342,760,76,-45,-2.00200142164368,1,0.513497599982657,0.0300412999931723,0.760756000061519,0.00995402158941471,0
21,3,343,400,40,-45,-2.00200142164368,1,0.475281600025482,0.0299516000086442,0.406740300008096,0.00995402158941471,0
12,3,344,220,22,-45,-2.00200142164368,1,0.531050899997354,0.0300687999697402,0.222810400067829,0.00995402158941471,0
50,3,345,980,98,-45,-2.00200142164368,1,0.613487599999644,0.0300423000007868,0.980663200025447,0.00995402158941471,0
49,3,346,960,96,-45,-2.00200142164368,-1,0.529336399980821,0.0298955000471324,0.961073399987072,0.00995402158941471,1
46,3,347,900,90,45,-2.00200142164368,1,0.471195199992508,0.0300262999953702,0.906343400012702,0.00995402158941471,1
6,3,348,100,10,45,-2.00200142164368,1,0.623206299962476,0.0299999000271782,0.0987671000184491,0.00995402158941471,1
23,3,349,440,44,-45,-2.00200142164368,-1,0.811041599954478,0.0298802853794768,0.439009214635007,0.00995402158941471,1
27,3,350,520,52,-45,-2.00200142164368,-1,1.30680490005761,0.0299836000194773,0.526569399982691,0.00995402158941471,1
46,3,351,900,90,45,-2.00200142164368,1,0.467484700027853,0.0299841999076307,0.902867300086655,0.00995402158941471,1
5,3,352,80,8,45,-2.00200142164368,1,0.631250999984331,0.0299979000119492,0.0828216000227258,0.00995402158941471,1
30,3,353,580,58,45,-2.00200142164368,1,0.705066399998032,0.0299946999875829,0.585132500040345,0.00995402158941471,1
14,3,354,260,26,45,-2.00200142164368,1,0.630781900021248,0.0299945999868214,0.266848400002345,0.00995402158941471,1
38,3,355,740,74,-45,-2.00200142164368,-1,0.637047399999574,0.0300181000493467,0.741100699990056,0.00995402158941471,1
5,3,356,80,8,45,-2.00200142164368,1,0.54115439997986,0.0299343999940902,0.0850520000094548,0.00995402158941471,1
45,3,357,880,88,45,-2.00200142164368,1,0.676725000026636,0.0399457999737933,0.88305780000519,0.00995402158941471,1
39,3,358,760,76,45,-2.00200142164368,1,0.55679910001345,0.0299740999471396,0.765111700049601,0.00995402158941471,1
22,3,359,420,42,45,-2.00200142164368,1,0.456992299994454,0.0298755000112578,0.417247800040059,0.00995402158941471,1
41,3,360,800,80,45,-2.00200142164368,1,0.512401400017552,0.0300493999384344,0.801382000092417,0.00995402158941471,1
26,3,361,500,50,45,-2.00200142164368,1,0.556707300012931,0.0299024999840185,0.503484499990009,0.00995402158941471,1
29,3,362,560,56,45,-2.00200142164368,1,0.504809100064449,0.0298553999746218,0.561200299998745,0.00995402158941471,1
32,3,363,620,62,-45,-2.00200142164368,1,0.576868900097907,0.0299641001038253,0.625184599892236,0.00995402158941471,0
11,3,364,200,20,-45,-2.00200142164368,1,0.512554900022224,0.0298576999921352,0.201347499969415,0.00995402158941471,0
14,3,365,260,26,45,-2.00200142164368,1,0.540758099989034,0.0299993000226095,0.261245799949393,0.00995402158941471,1
6,3,366,100,10,-45,-2.00200142164368,-1,0.726772199966945,0.0299042999977246,0.0989426999585703,0.00995402158941471,1
17,3,367,320,32,45,-2.00200142164368,1,0.662778099998832,0.0299627999775112,0.323133900063112,0.00995402158941471,1
28,3,368,540,54,45,-2.00200142164368,1,0.444246799917892,0.029978199978359,0.541566099971533,0.00995402158941471,1
2,3,369,20,2,45,-2.00200142164368,-1,0.726404599961825,0.0300557999871671,0.0179345000069588,0.00995402158941471,0
27,3,370,520,52,45,-2.00200142164368,-1,0.814783199923113,0.0299671000102535,0.523721699952148,0.00995402158941471,0
39,3,371,760,76,45,-2.00200142164368,-1,0.884682500036433,0.0299300000770018,0.765573099954054,0.00995402158941471,0
12,3,372,220,22,45,-2.00200142164368,-1,0.634792700060643,0.0299689000239596,0.223368600010872,0.00995402158941471,0
1,3,373,0,0,45,-2.00200142164368,-1,1.14037300006021,0.0299201000016183,0.0055583999492228,0.00995402158941471,0
43,3,374,840,84,-45,-2.00200142164368,-1,0.51624379993882,0.0299446999561042,0.845832300023176,0.00995402158941471,1
6,3,375,100,10,-45,-2.00200142164368,1,0.538536200067028,0.0299957999959588,0.103872700012289,0.00995402158941471,0
40,3,376,780,78,45,-2.00200142164368,-1,0.440303599927574,0.0299809999996796,0.785563200013712,0.00995402158941471,0
13,3,377,240,24,45,-2.00200142164368,1,0.45793799997773,0.029950900003314,0.239649199997075,0.00995402158941471,1
28,3,378,540,54,45,-2.00200142164368,1,0.684647499932908,0.0299450000748038,0.541252799914218,0.00995402158941471,1
2,3,379,20,2,45,-2.00200142164368,-1,0.766440300038084,0.0298738999990746,0.0197458999464288,0.00995402158941471,0
29,3,380,560,56,45,-2.00200142164368,1,0.43587209994439,0.0299403000390157,0.558027699938975,0.00995402158941471,1
1,3,381,0,0,-45,-2.00200142164368,-1,0.536421300028451,0.0300659000640735,0.00166119995992631,0.00995402158941471,1
13,3,382,240,24,-45,-2.00200142164368,1,0.465957899927162,0.0299946001032367,0.239692999981344,0.00995402158941471,0
31,3,383,600,60,45,-2.00200142164368,1,0.434140699915588,0.0299428000580519,0.600104499957524,0.00995402158941471,1
35,3,384,680,68,-45,-2.00200142164368,1,0.316082300036214,0.0298961000517011,0.685806799912825,0.00995402158941471,0
14,3,385,260,26,-45,-2.00200142164368,-1,0.67978080001194,0.0298147634603083,0.257679536589421,0.00995402158941471,1
23,3,386,440,44,45,-2.00200142164368,1,0.369734300067648,0.02990259998478,0.43982239998877,0.00995402158941471,1
35,3,387,680,68,45,-2.00200142164368,1,0.464262900059111,0.0299728999380022,0.681752600008622,0.00995402158941471,1
28,3,388,540,54,-45,-2.00200142164368,1,0.412025900091976,0.0299908000743017,0.541898999945261,0.00995402158941471,0
34,3,389,660,66,45,-2.00200142164368,1,0.401647299993783,0.0300513999536633,0.664231200003996,0.00995402158941471,1
47,3,390,920,92,-45,-2.00200142164368,-1,0.488032500026748,0.0300039999419823,0.919665900059044,0.00995402158941471,1
18,3,391,340,34,-45,-2.00200142164368,-1,0.607553599984385,0.0300985999638215,0.345957600045949,0.00995402158941471,1
7,3,392,120,12,-45,-2.00200142164368,-1,0.724084599991329,0.0299984000157565,0.126280999975279,0.00995402158941471,1
4,3,393,60,6,-45,-2.00200142164368,-1,1.40769480005838,0.0298407999798656,0.0582269999431446,0.00995402158941471,1
8,3,394,140,14,-45,-2.00200142164368,1,0.559800400049426,0.029939099913463,0.138509100070223,0.00995402158941471,0
26,3,395,500,50,45,-2.00200142164368,-1,0.583475599996746,0.0300665999529883,0.506129199988209,0.00995402158941471,0
15,3,396,280,28,-45,-2.00200142164368,-1,0.721552300034091,0.0299302999628708,0.280467999982648,0.00995402158941471,1
25,3,397,480,48,45,-2.00200142164368,-1,0.513412400032394,0.0300055999541655,0.480122200096957,0.00995402158941471,0
33,3,398,640,64,45,-2.00200142164368,-1,0.598048700019717,0.0299365000100806,0.644235200015828,0.00995402158941471,0
31,3,399,600,60,-45,-2.00200142164368,-1,0.825789600028656,0.0300437000114471,0.600387600017712,0.00995402158941471,1
34,3,400,660,66,45,-2.00200142164368,1,0.523629000061192,0.0300181999336928,0.662284299964085,0.00995402158941471,1
8,3,401,140,14,-45,-2.00200142164368,1,0.47376510000322,0.0299929000902921,0.144551899982616,0.00995402158941471,0
10,3,402,180,18,45,-2.00200142164368,1,0.473779099993408,0.029906400013715,0.184292000019923,0.00995402158941471,1
7,3,403,120,12,-45,-2.00200142164368,1,0.469776100013405,0.0299320999765769,0.124334300053306,0.00995402158941471,0
18,3,404,340,34,-45,-2.00200142164368,1,0.555311999982223,0.0299485999858007,0.342411899939179,0.00995402158941471,0
19,3,405,360,36,-45,-2.00200142164368,1,0.523724099970423,0.0297899268334731,0.358574873185717,0.00995402158941471,0
40,3,406,780,78,-45,-2.00200142164368,-1,0.629273799946532,0.0298182000406086,0.780775999999605,0.00995402158941471,1
25,3,407,480,48,-45,-2.00200142164368,-1,0.921151400078088,0.029958099941723,0.480593700078316,0.00995402158941471,1
20,3,408,380,38,45,-2.00200142164368,-1,0.475511199911125,0.0300879999995232,0.382729300064966,0.00995402158941471,0
13,3,409,240,24,45,-2.00200142164368,1,0.853457099990919,0.0299825000111014,0.244859099970199,0.00995402158941471,1
36,3,410,700,70,-45,-2.00200142164368,1,0.569022299954668,0.0300610000267625,0.704356499947608,0.00995402158941471,0
27,3,411,520,52,-45,-2.00200142164368,1,0.381346899899654,0.0299846000270918,0.524522499996237,0.00995402158941471,0
43,3,412,840,84,45,-2.00200142164368,1,0.373099299962632,0.0300139000173658,0.837005399982445,0.00995402158941471,1
1,3,413,0,0,-45,-2.00200142164368,-1,0.859722599969245,0.0299068000167608,0.00663099996745586,0.00995402158941471,1
42,3,414,820,82,-45,-2.00200142164368,-1,0.46886160003487,0.0299940999830142,0.820716200047173,0.00995402158941471,1
10,3,415,180,18,45,-2.00200142164368,-1,0.624884799937718,0.0298234999645501,0.176776699954644,0.00995402158941471,0
21,3,416,400,40,45,-2.00200142164368,-1,0.549167199991643,0.0298769000219181,0.397203600034118,0.00995402158941471,0
3,3,417,40,4,45,-2.00200142164368,1,0.540941399987787,0.0299870999297127,0.0446876001078635,0.00995402158941471,1
25,3,418,480,48,45,-2.00200142164368,-1,0.643244200036861,0.0299455000786111,0.486790599999949,0.00995402158941471,0
33,3,419,640,64,45,-2.00200142164368,1,0.483162599964999,0.0298898000037298,0.639235500013456,0.00995402158941471,1
10,3,420,180,18,45,-2.00200142164368,-1,0.921136399963871,0.0299733000574633,0.184976399992593,0.00995402158941471,0
51,3,421,1000,100,45,-2.00200142164368,1,0.659090099972673,0.0300070000812411,1.00683199998457,0.00995402158941471,1
4,3,422,60,6,45,-2.00200142164368,-1,0.613389399950393,0.0299375000176951,0.0611817999742925,0.00995402158941471,0
23,3,423,440,44,45,-2.00200142164368,-1,0.477158599998802,0.0299289999529719,0.436973600066267,0.00995402158941471,0
50,3,424,980,98,-45,-2.00200142164368,1,0.657191500067711,0.0299260000465438,0.977024200023152,0.00995402158941471,0
44,3,425,860,86,-45,-2.00200142164368,-1,0.585164700052701,0.0299917999655008,0.86504619999323,0.00995402158941471,1
38,3,426,740,74,45,-2.00200142164368,1,0.564636999974027,0.0299770999699831,0.740873500006273,0.00995402158941471,1
44,3,427,860,86,-45,-2.00200142164368,-1,0.876905599958263,0.0298889999976382,0.860956800053827,0.00995402158941471,1
47,3,428,920,92,45,-2.00200142164368,-1,0.754430399974808,0.0300803000573069,0.919109900016338,0.00995402158941471,0
32,3,429,620,62,-45,-2.00200142164368,1,0.406230399967171,0.0299177537672222,0.619309446192347,0.00995402158941471,0
8,3,430,140,14,-45,-2.00200142164368,1,0.630425499984995,0.029916699975729,0.139307199977338,0.00995402158941471,0
46,3,431,900,90,45,-2.00200142164368,1,0.354712200001813,0.0299647999927402,0.903270999900997,0.00995402158941471,1
19,3,432,360,36,45,-2.00200142164368,-1,0.490571099915542,0.0300174000440165,0.359293199959211,0.00995402158941471,0
7,3,433,120,12,-45,-2.00200142164368,-1,0.484686399926431,0.0298515000613406,0.11769609991461,0.00995402158941471,1
16,3,434,300,30,45,-2.00200142164368,-1,0.392544699949212,0.0300340999383479,0.305326699977741,0.00995402158941471,0
17,3,435,320,32,45,-2.00200142164368,-1,0.604782299953513,0.0299098000396043,0.325108699966222,0.00995402158941471,0
34,3,436,660,66,45,-2.00200142164368,-1,0.620342800044455,0.0299618999706581,0.661516000051051,0.00995402158941471,0
9,3,437,160,16,45,-2.00200142164368,1,0.546626599971205,0.029930799966678,0.15963610005565,0.00995402158941471,1
3,3,438,40,4,-45,-2.00200142164368,1,0.548674399964511,0.0299964000005275,0.0375547000439838,0.00995402158941471,0
22,3,439,420,42,45,-2.00200142164368,1,0.632494800025597,0.0298676999518648,0.417776400106959,0.00995402158941471,1
30,3,440,580,58,-45,-2.00200142164368,-1,6.26243090000935,0.0298697000835091,0.579449899960309,0.00995402158941471,1
26,3,441,500,50,45,-2.00200142164368,-1,0.528555600089021,0.0299239999148995,0.505569900036789,0.00995402158941471,0
20,3,442,380,38,45,-2.00200142164368,1,0.630597000010312,0.029941099928692,0.379562600050122,0.00995402158941471,1
48,3,443,940,94,-45,-2.00200142164368,-1,0.530692899948917,0.029942600056529,0.943582699983381,0.00995402158941471,1
37,3,444,720,72,45,-2.00200142164368,1,0.656370099983178,0.0300714999902993,0.721790199982934,0.00995402158941471,1
37,3,445,720,72,-45,-2.00200142164368,1,0.380438599968329,0.030005699954927,0.725913400063291,0.00995402158941471,0
44,3,446,860,86,45,-2.00200142164368,1,0.448024999932386,0.0299647999927402,0.857326600002125,0.00995402158941471,1
51,3,447,1000,100,45,-2.00200142164368,1,0.58832480001729,0.0299295000731945,1.00577499996871,0.00995402158941471,1
36,3,448,700,70,-45,-2.00200142164368,-1,0.606216699932702,0.0298148000147194,0.700175200006925,0.00995402158941471,1
30,3,449,580,58,-45,-2.00200142164368,-1,0.462274300050922,0.0298232999630272,0.580227199941874,0.00995402158941471,1
24,3,450,460,46,45,-2.00200142164368,-1,0.548048300086521,0.0299455999629572,0.462015600060113,0.00995402158941471,0
40,3,451,780,78,45,-2.00200142164368,-1,0.544080100022256,0.0300313000334427,0.785716600017622,0.00995402158941471,0
3,3,452,40,4,-45,-2.00200142164368,1,0.882261299993843,0.0298424999928102,0.0399326999904588,0.00995402158941471,0
49,3,453,960,96,-45,-2.00200142164368,-1,0.726042700000107,0.0299745999509469,0.965800800011493,0.00995402158941471,1
35,3,454,680,68,-45,-2.00200142164368,-1,0.675852400017902,0.0298676999518648,0.678101600031368,0.00995402158941471,1
11,3,455,200,20,-45,-2.00200142164368,-1,0.542288399999961,0.0299765999661759,0.203789300052449,0.00995402158941471,1
49,3,456,960,96,45,-2.00200142164368,-1,0.572032999945804,0.0300558999879286,0.965818500029854,0.00995402158941471,0
42,3,457,820,82,45,-2.00200142164368,-1,0.65170029993169,0.0300051000667736,0.822036999976262,0.00995402158941471,0
16,3,458,300,30,-45,-2.00200142164368,-1,0.548009900026955,0.0300384999718517,0.301980699994601,0.00995402158941471,1
9,3,459,160,16,-45,-2.00200142164368,-1,0.539522800012492,0.0298886001110077,0.158467999892309,0.00995402158941471,1
19,4,460,360,36,45,-2.00200142164368,1,0.588506200001575,0.0298755536787212,0.357876246329397,0.00995402158941471,1
9,4,461,160,16,45,-2.00200142164368,1,0.542245000018738,0.0299182999879122,0.163753900094889,0.00995402158941471,1
48,4,462,940,94,45,-2.00200142164368,1,0.42459880001843,0.0298614000203088,0.937947300029919,0.00995402158941471,1
36,4,463,700,70,45,-2.00200142164368,1,0.496708599966951,0.0298812000546604,0.705766499973834,0.00995402158941471,1
13,4,464,240,24,45,-2.00200142164368,1,0.514258100069128,0.030117699992843,0.239622000022791,0.00995402158941471,1
4,4,465,60,6,-45,-2.00200142164368,1,0.599463299964555,0.030053700087592,0.0595426999498159,0.00995402158941471,0
30,4,466,580,58,-45,-2.00200142164368,-1,0.508391899988055,0.0298733999952674,0.585708200000226,0.00995402158941471,1
8,4,467,140,14,45,-2.00200142164368,-1,0.488469099975191,0.0299147000769153,0.145206299959682,0.00995402158941471,0
5,4,468,80,8,45,-2.00200142164368,1,0.442745700012892,0.029897499945946,0.079728800104931,0.00995402158941471,1
12,4,469,220,22,45,-2.00200142164368,-1,0.552423099987209,0.029961199965328,0.217619200004265,0.00995402158941471,0
20,4,470,380,38,-45,-2.00200142164368,-1,0.478305199998431,0.0299803999951109,0.379985500010662,0.00995402158941471,1
25,4,471,480,48,45,-2.00200142164368,1,0.472049999982119,0.0300334000494331,0.48173580004368,0.00995402158941471,1
17,4,472,320,32,45,-2.00200142164368,1,0.489804800017737,0.0299784999806434,0.31972449994646,0.00995402158941471,1
19,4,473,360,36,-45,-2.00200142164368,1,0.608213200001046,0.0299344999948516,0.361841100035235,0.00995402158941471,0
40,4,474,780,78,-45,-2.00200142164368,1,0.512161799939349,0.0298906000098214,0.778155599953607,0.00995402158941471,0
12,4,475,220,22,-45,-2.00200142164368,-1,0.532235200051218,0.0299845000263304,0.222115400014445,0.00995402158941471,1
34,4,476,660,66,45,-2.00200142164368,1,0.388025799999014,0.0298726999899372,0.662130199954845,0.00995402158941471,1
10,4,477,180,18,-45,-2.00200142164368,1,0.464289899915457,0.0299557999242097,0.186087800073437,0.00995402158941471,0
37,4,478,720,72,45,-2.00200142164368,1,0.54006439994555,0.0299704999197274,0.725920500000939,0.00995402158941471,1
23,4,479,440,44,-45,-2.00200142164368,-1,0.472343100002035,0.0299614999676123,0.441936700022779,0.00995402158941471,1
38,4,480,740,74,-45,-2.00200142164368,-1,0.552092399913818,0.0298796537099406,0.738210346316919,0.00995402158941471,1
10,4,481,180,18,-45,-2.00200142164368,-1,0.483665100065991,0.0298157804645598,0.182132119545713,0.00995402158941471,1
49,4,482,960,96,-45,-2.00200142164368,1,0.433572000009008,0.030039600096643,0.960156499990262,0.00995402158941471,0
3,4,483,40,4,-45,-2.00200142164368,1,0.548187799984589,0.0299628999782726,0.0462484000017866,0.00995402158941471,0
32,4,484,620,62,45,-2.00200142164368,1,0.473742699949071,0.029950900003314,0.624265799997374,0.00995402158941471,1
37,4,485,720,72,45,-2.00200142164368,-1,0.479909499990754,0.0300231000874192,0.721958699985407,0.00995402158941471,0
10,4,486,180,18,-45,-2.00200142164368,-1,0.485529899946414,0.0299748000688851,0.180402099969797,0.00995402158941471,1
26,4,487,500,50,-45,-2.00200142164368,-1,0.563379099941812,0.0300318999215961,0.502138399984688,0.00995402158941471,1
6,4,488,100,10,45,-2.00200142164368,1,0.449485700111836,0.0299391000298783,0.104244699934497,0.00995402158941471,1
23,4,489,440,44,45,-2.00200142164368,1,0.451330799958669,0.0298507999395952,0.438319100067019,0.00995402158941471,1
24,4,490,460,46,45,-2.00200142164368,1,0.755797100020573,0.0299594999523833,0.46231390000321,0.00995402158941471,1
11,4,491,200,20,-45,-2.00200142164368,1,0.517518599983305,0.0298786999192089,0.204238799982704,0.00995402158941471,0
28,4,492,540,54,-45,-2.00200142164368,-1,0.407587199937552,0.0298838951857761,0.538512804894708,0.00995402158941471,1
21,4,493,400,40,45,-2.00200142164368,1,0.447461299947463,0.0299708999227732,0.402127500041388,0.00995402158941471,1
7,4,494,120,12,45,-2.00200142164368,1,0.491427000029944,0.0298755000112578,0.118380700005218,0.00995402158941471,1
13,4,495,240,24,45,-2.00200142164368,1,0.461560699972324,0.0299335999879986,0.244405400007963,0.00995402158941471,1
30,4,496,580,58,45,-2.00200142164368,1,0.463328900048509,0.0299916999647394,0.586229000007734,0.00995402158941471,1
24,4,497,460,46,-45,-2.00200142164368,-1,0.767541200038977,0.0299710999242961,0.466658700024709,0.00995402158941471,1
18,4,498,340,34,-45,-2.00200142164368,1,0.56525490002241,0.0300578000023961,0.340223699924536,0.00995402158941471,0
12,4,499,220,22,-45,-2.00200142164368,1,0.557115199975669,0.0300209999550134,0.220363400061615,0.00995402158941471,0
46,4,500,900,90,45,-2.00200142164368,1,0.705216299975291,0.0299316999735311,0.904472499969415,0.00995402158941471,1
32,4,501,620,62,-45,-2.00200142164368,1,0.335212599951774,0.02997100003995,0.626461599953473,0.00995402158941471,0
15,4,502,280,28,-45,-2.00200142164368,1,0.479569699964486,0.0300170999253169,0.282586300047114,0.00995402158941471,0
31,4,503,600,60,-45,-2.00200142164368,1,0.403233800083399,0.0299960999982432,0.598596199997701,0.00995402158941471,0
31,4,504,600,60,-45,-2.00200142164368,-1,0.351171700051054,0.0300445000175387,0.602580200065859,0.00995402158941471,1
22,4,505,420,42,-45,-2.00200142164368,1,0.477127199992537,0.0299778999760747,0.420612899935804,0.00995402158941471,0
32,4,506,620,62,-45,-2.00200142164368,1,0.491489399923012,0.0298844999633729,0.62261890002992,0.00995402158941471,0
3,4,507,40,4,-45,-2.00200142164368,1,0.855605399934575,0.0300295000197366,0.0426621000515297,0.00995402158941471,0
8,4,508,140,14,-45,-2.00200142164368,1,0.487235500011593,0.0300179999321699,0.146533000050113,0.00995402158941471,0
15,4,509,280,28,45,-2.00200142164368,1,0.49121839995496,0.0299988000188023,0.278411000035703,0.00995402158941471,1
29,4,510,560,56,45,-2.00200142164368,-1,0.765271700103767,0.0299740000627935,0.564995299908333,0.00995402158941471,0
1,4,511,0,0,-45,-2.00200142164368,1,0.499445699970238,0.0300201000645757,0.00670329993590713,0.00995402158941471,0
13,4,512,240,24,45,-2.00200142164368,-1,0.475284399930388,0.0299494999926537,0.238713699975051,0.00995402158941471,0
46,4,513,900,90,45,-2.00200142164368,1,0.587171699968167,0.0299369000131264,0.902821499970742,0.00995402158941471,1
39,4,514,760,76,-45,-2.00200142164368,-1,0.42895299999509,0.0298982000676915,0.76463209989015,0.00995402158941471,1
11,4,515,200,20,45,-2.00200142164368,1,0.723267900059,0.0298622999107465,0.199271599994972,0.00995402158941471,1
44,4,516,860,86,45,-2.00200142164368,1,0.433130899909884,0.029833558597602,0.856999241397716,0.00995402158941471,1
22,4,517,420,42,-45,-2.00200142164368,-1,0.799056799965911,0.0300705999834463,0.426866199937649,0.00995402158941471,1
29,4,518,560,56,45,-2.00200142164368,1,0.56316889997106,0.0299462999682873,0.56701170001179,0.00995402158941471,1
15,4,519,280,28,-45,-2.00200142164368,1,0.412947400007397,0.0299174999818206,0.285082200076431,0.00995402158941471,0
22,4,520,420,42,45,-2.00200142164368,1,0.527040000073612,0.0299275999423116,0.419112900039181,0.00995402158941471,1
9,4,521,160,16,-45,-2.00200142164368,-1,0.529036399908364,0.0300478000426665,0.161225999938324,0.00995402158941471,1
44,4,522,860,86,45,-2.00200142164368,-1,0.512665100046434,0.0300077999709174,0.863756100065075,0.00995402158941471,0
14,4,523,260,26,-45,-2.00200142164368,1,0.607164299930446,0.0299457999644801,0.259113600011915,0.00995402158941471,0
28,4,524,540,54,-45,-2.00200142164368,1,0.446640599984676,0.0299236999126151,0.539418300031684,0.00995402158941471,0
38,4,525,740,74,-45,-2.00200142164368,-1,0.396994700073265,0.0300005000317469,0.74116039997898,0.00995402158941471,1
16,4,526,300,30,45,-2.00200142164368,1,0.478990699979477,0.0300066999625415,0.299330599955283,0.00995402158941471,1
23,4,527,440,44,45,-2.00200142164368,1,0.534427699982189,0.0300201999489218,0.443105100071989,0.00995402158941471,1
38,4,528,740,74,45,-2.00200142164368,1,0.430782800074667,0.0299570999341086,0.739250699989498,0.00995402158941471,1
49,4,529,960,96,-45,-2.00200142164368,-1,0.438934299978428,0.0299577999394387,0.963445400004275,0.00995402158941471,1
45,4,530,880,88,45,-2.00200142164368,1,0.516371400095522,0.0297911391826347,0.877500360831618,0.00995402158941471,1
16,4,531,300,30,45,-2.00200142164368,1,0.568530500051565,0.0299493999918923,0.305489099933766,0.00995402158941471,1
50,4,532,980,98,45,-2.00200142164368,1,0.480691400007345,0.0299129999475554,0.984981200075708,0.00995402158941471,1
6,4,533,100,10,45,-2.00200142164368,1,0.647014699992724,0.0298629000317305,0.0992475999519229,0.00995402158941471,1
48,4,534,940,94,45,-2.00200142164368,1,0.542370100039989,0.0299247999209911,0.939690100029111,0.00995402158941471,1
8,4,535,140,14,-45,-2.00200142164368,1,0.524877000018023,0.0299200000008568,0.141296700108796,0.00995402158941471,0
20,4,536,380,38,45,-2.00200142164368,1,0.388303999905474,0.0299483999842778,0.381469300016761,0.00995402158941471,1
30,4,537,580,58,-45,-2.00200142164368,1,0.394370699999854,0.0299451999599114,0.582311299978755,0.00995402158941471,0
18,4,538,340,34,45,-2.00200142164368,1,0.524676400003955,0.0299887000583112,0.341408199979924,0.00995402158941471,1
24,4,539,460,46,45,-2.00200142164368,1,0.448227599961683,0.0297867000335827,0.457872500061058,0.00995402158941471,1
45,4,540,880,88,-45,-2.00200142164368,-1,0.596015900024213,0.0298342317109928,0.885343868285418,0.00995402158941471,1
9,4,541,160,16,-45,-2.00200142164368,-1,0.628542099962942,0.030060000019148,0.165717100026086,0.00995402158941471,1
6,4,542,100,10,-45,-2.00200142164368,-1,0.86463610001374,0.0299695000285283,0.105585900018923,0.00995402158941471,1
43,4,543,840,84,-45,-2.00200142164368,-1,0.558120600064285,0.0299746999517083,0.843708800035529,0.00995402158941471,1
33,4,544,640,64,-45,-2.00200142164368,-1,0.564484099973924,0.0299878000514582,0.643004299956374,0.00995402158941471,1
35,4,545,680,68,-45,-2.00200142164368,1,1.25234110001475,0.0300182000501081,0.685685599921271,0.00995402158941471,0
14,4,546,260,26,-45,-2.00200142164368,1,0.617891400004737,0.0299144999589771,0.264018899993971,0.00995402158941471,0
16,4,547,300,30,45,-2.00200142164368,1,0.510012799990363,0.030022699967958,0.299916399992071,0.00995402158941471,1
21,4,548,400,40,45,-2.00200142164368,1,0.528737999964505,0.0300476000411436,0.401923299999908,0.00995402158941471,1
40,4,549,780,78,-45,-2.00200142164368,-1,0.441728800069541,0.0300487000495195,0.782388100051321,0.00995402158941471,1
41,4,550,800,80,-45,-2.00200142164368,-1,0.442115799989551,0.0300447000190616,0.807780699920841,0.00995402158941471,1
3,4,551,40,4,-45,-2.00200142164368,-1,0.55027250002604,0.0297942000906914,0.0440152999944985,0.00995402158941471,1
47,4,552,920,92,-45,-2.00200142164368,-1,0.456208899966441,0.0299931999761611,0.922098800074309,0.00995402158941471,1
11,4,553,200,20,-45,-2.00200142164368,-1,0.651935699977912,0.0298927000258118,0.2061939999694,0.00995402158941471,1
43,4,554,840,84,-45,-2.00200142164368,-1,0.536205399897881,0.0298774999100715,0.842067699995823,0.00995402158941471,1
33,4,555,640,64,-45,-2.00200142164368,-1,0.468127900036052,0.0298597000073642,0.645986799965613,0.00995402158941471,1
1,4,556,0,0,45,-2.00200142164368,-1,0.629826099961065,0.0300529999658465,0.00922820006962866,0.00995402158941471,0
40,4,557,780,78,-45,-2.00200142164368,-1,0.455883199931122,0.0299972000066191,0.785837000003085,0.00995402158941471,1
2,4,558,20,2,45,-2.00200142164368,-1,0.633792100008577,0.0300729000009596,0.0160115000326186,0.00995402158941471,0
21,4,559,400,40,45,-2.00200142164368,-1,0.599829699960537,0.0299873999319971,0.402346500079148,0.00995402158941471,0
18,4,560,340,34,45,-2.00200142164368,-1,0.415821600006893,0.029931899975054,0.346362799988128,0.00995402158941471,0
29,4,561,560,56,45,-2.00200142164368,-1,0.385789499967359,0.02997100003995,0.560138899949379,0.00995402158941471,0
25,4,562,480,48,-45,-2.00200142164368,1,0.683706399984658,0.0300207999534905,0.480049600009806,0.00995402158941471,0
39,4,563,760,76,-45,-2.00200142164368,-1,0.885944899986498,0.0299356000032276,0.764246599981561,0.00995402158941471,1
51,4,564,1000,100,-45,-2.00200142164368,-1,1.44948360009585,0.0300647999392822,0.999901800067164,0.00995402158941471,1
4,4,565,60,6,45,-2.00200142164368,-1,1.51754409994464,0.0298968000570312,0.0595644999993965,0.00995402158941471,0
42,4,566,820,82,-45,-2.00200142164368,1,0.675781000056304,0.0299962999997661,0.82238889997825,0.00995402158941471,0
26,4,567,500,50,45,-2.00200142164368,1,0.539683299954049,0.0300027999328449,0.50249129999429,0.00995402158941471,1
49,4,568,960,96,45,-2.00200142164368,1,0.793425900046714,0.0300029999343678,0.960642300080508,0.00995402158941471,1
27,4,569,520,52,45,-2.00200142164368,1,1.06071560003329,0.0299076000228524,0.518403099966235,0.00995402158941471,1
42,4,570,820,82,-45,-2.00200142164368,-1,0.444797400035895,0.029973299941048,0.822338300058618,0.00995402158941471,1
28,4,571,540,54,45,-2.00200142164368,1,0.483559799962677,0.0299790999852121,0.542744099977426,0.00995402158941471,1
47,4,572,920,92,-45,-2.00200142164368,-1,1.27746060001664,0.0299811000004411,0.916878100018948,0.00995402158941471,1
46,4,573,900,90,-45,-2.00200142164368,-1,0.750399700016715,0.0300317000364885,0.900516199995764,0.00995402158941471,1
25,4,574,480,48,45,-2.00200142164368,-1,0.655120400013402,0.029945999966003,0.482617700006813,0.00995402158941471,0
43,4,575,840,84,-45,-2.00200142164368,-1,1.83700189995579,0.0298602000111714,0.844744800007902,0.00995402158941471,1
27,4,576,520,52,-45,-2.00200142164368,-1,0.610737800016068,0.0299362220102921,0.518761277897283,0.00995402158941471,1
26,4,577,500,50,-45,-2.00200142164368,-1,0.659164499957114,0.0299884000560269,0.50294459995348,0.00995402158941471,1
5,4,578,80,8,45,-2.00200142164368,1,0.621603099978529,0.0298957000486553,0.0849177999189124,0.00995402158941471,1
36,4,579,700,70,-45,-2.00200142164368,1,1.16536840004846,0.030114599969238,0.700788600021042,0.00995402158941471,0
51,4,580,1000,100,45,-2.00200142164368,-1,0.822848999989219,0.0299573999363929,1.00291519996244,0.00995402158941471,0
45,4,581,880,88,-45,-2.00200142164368,-1,0.666889899992384,0.029833099921234,0.886536000063643,0.00995402158941471,1
7,4,582,120,12,45,-2.00200142164368,-1,0.707105999928899,0.0299961999990046,0.118797700037248,0.00995402158941471,0
33,4,583,640,64,45,-2.00200142164368,-1,0.829446600051597,0.0299856999190524,0.645022600074299,0.00995402158941471,0
5,4,584,80,8,45,-2.00200142164368,-1,0.846984200063162,0.029858099995181,0.0830097999423742,0.00995402158941471,0
17,4,585,320,32,-45,-2.00200142164368,1,0.587353099952452,0.029988200054504,0.319046800024807,0.00995402158941471,0
7,4,586,120,12,45,-2.00200142164368,-1,0.713013499975204,0.0298555986955762,0.121536201215349,0.00995402158941471,0
31,4,587,600,60,45,-2.00200142164368,-1,0.442418799968436,0.0301554000470787,0.599199600052088,0.00995402158941471,0
2,4,588,20,2,45,-2.00200142164368,-1,0.801015899982303,0.0298857999732718,0.01725949998945,0.00995402158941471,0
35,4,589,680,68,-45,-2.00200142164368,-1,0.546415399992839,0.0299197999993339,0.679431400028989,0.00995402158941471,1
48,4,590,940,94,-45,-2.00200142164368,-1,0.488659400027245,0.0300664000678807,0.945489699952304,0.00995402158941471,1
51,4,591,1000,100,45,-2.00200142164368,-1,0.570803300011903,0.0300122998887673,0.9995149000315,0.00995402158941471,0
27,4,592,520,52,45,-2.00200142164368,-1,0.486972199985757,0.0299910999601707,0.520630900049582,0.00995402158941471,0
39,4,593,760,76,45,-2.00200142164368,1,0.620118399965577,0.0300110999960452,0.757466100039892,0.00995402158941471,1
34,4,594,660,66,45,-2.00200142164368,-1,0.530548200011253,0.0299939000979066,0.663570999982767,0.00995402158941471,0
2,4,595,20,2,-45,-2.00200142164368,-1,0.676835000049323,0.0299486999865621,0.021323399967514,0.00995402158941471,1
41,4,596,800,80,45,-2.00200142164368,-1,0.68464870005846,0.0300001000287011,0.805639600032009,0.00995402158941471,0
19,4,597,360,36,45,-2.00200142164368,-1,0.88224970002193,0.0299189999932423,0.359585899976082,0.00995402158941471,0
17,4,598,320,32,45,-2.00200142164368,1,0.554101499961689,0.0300710999872535,0.327402799972333,0.00995402158941471,1
4,4,599,60,6,-45,-2.00200142164368,-1,0.818156099994667,0.0299478999804705,0.0634282999671996,0.00995402158941471,1
44,4,600,860,86,45,-2.00200142164368,-1,0.750132000073791,0.0301902999635786,0.859513400006108,0.00995402158941471,0
37,4,601,720,72,45,-2.00200142164368,-1,0.63793260010425,0.0298542644595727,0.723869435489178,0.00995402158941471,0
14,4,602,260,26,-45,-2.00200142164368,-1,0.52234710007906,0.0299951999913901,0.264015899971128,0.00995402158941471,1
35,4,603,680,68,45,-2.00200142164368,1,0.456045800005086,0.0299484999850392,0.681555700022727,0.00995402158941471,1
50,4,604,980,98,-45,-2.00200142164368,1,0.636016599950381,0.0299615999683738,0.98204400006216,0.00995402158941471,0
47,4,605,920,92,45,-2.00200142164368,1,0.444091800018214,0.0299179633148015,0.918142036651261,0.00995402158941471,1
50,4,606,980,98,45,-2.00200142164368,1,0.599692999967374,0.0299689999083057,0.985928900074214,0.00995402158941471,1
1,4,607,0,0,-45,-2.00200142164368,-1,0.659832800040022,0.0299820000072941,0.00580399995669723,0.00995402158941471,1
20,4,608,380,38,-45,-2.00200142164368,-1,0.751694199978374,0.0298001951305196,0.378386604832485,0.00995402158941471,1
34,4,609,660,66,-45,-2.00200142164368,-1,0.551772700040601,0.0299200000008568,0.658032099949196,0.00995402158941471,1
42,4,610,820,82,-45,-2.00200142164368,-1,0.714251199970022,0.0299435999477282,0.824253199971281,0.00995402158941471,1
36,4,611,700,70,-45,-2.00200142164368,-1,0.600106199970469,0.0298783634789288,0.698171236552298,0.00995402158941471,1
41,4,612,800,80,45,-2.00200142164368,-1,0.683566699968651,0.0298226634040475,0.798500036587939,0.00995402158941471,0
44,5,613,860,86,45,-2.00200142164368,-1,1.27697589993477,0.0299952999921516,0.860968599910848,0.00995402158941471,0
4,5,614,60,6,45,-2.00200142164368,1,0.570509399985895,0.0299865999259055,0.0634647000115365,0.00995402158941471,1
25,5,615,480,48,45,-2.00200142164368,1,0.630573699949309,0.0300815000664443,0.483179999981076,0.00995402158941471,1
48,5,616,940,94,-45,-2.00200142164368,1,0.553068100009114,0.0298549220897257,0.937724977964535,0.00995402158941471,0
16,5,617,300,30,45,-2.00200142164368,1,0.488037399947643,0.0300805682782084,0.297541100066155,0.00995402158941471,1
28,5,618,540,54,-45,-2.00200142164368,-1,0.806733799981885,0.0299949999898672,0.539373100036755,0.00995402158941471,1
29,5,619,560,56,-45,-2.00200142164368,-1,0.542617999948561,0.0299978000111878,0.563324699993245,0.00995402158941471,1
51,5,620,1000,100,45,-2.00200142164368,1,0.452924099983647,0.0298348219366744,0.997819878044538,0.00995402158941471,1
37,5,621,720,72,45,-2.00200142164368,1,0.494614199968055,0.0299946999875829,0.723613200010732,0.00995402158941471,1
39,5,622,760,76,45,-2.00200142164368,1,0.546510900021531,0.0299237000290304,0.759510100004263,0.00995402158941471,1
43,5,623,840,84,45,-2.00200142164368,1,0.484506800072268,0.0300865999888629,0.836586500052363,0.00995402158941471,1
44,5,624,860,86,45,-2.00200142164368,-1,0.91612750000786,0.0298243000870571,0.86158229992725,0.00995402158941471,0
29,5,625,560,56,-45,-2.00200142164368,-1,0.524450700031593,0.0299870000453666,0.557587599963881,0.00995402158941471,1
41,5,626,800,80,-45,-2.00200142164368,1,0.443976999958977,0.0298391854157671,0.797734114574268,0.00995402158941471,0
13,5,627,240,24,45,-2.00200142164368,1,0.532707800040953,0.0299239000305533,0.245835999958217,0.00995402158941471,1
40,5,628,780,78,-45,-2.00200142164368,-1,0.520348699996248,0.0298261342104524,0.777753865811974,0.00995402158941471,1
11,5,629,200,20,45,-2.00200142164368,1,0.578438199940138,0.0298676000675187,0.199684099992737,0.00995402158941471,1
50,5,630,980,98,-45,-2.00200142164368,1,0.506388899986632,0.0300224999664351,0.983666900079697,0.00995402158941471,0
47,5,631,920,92,45,-2.00200142164368,1,0.484442800050601,0.0399405000498518,0.92386290000286,0.00995402158941471,1
7,5,632,120,12,45,-2.00200142164368,1,0.486448900075629,0.0300602000206709,0.123920999933034,0.00995402158941471,1
10,5,633,180,18,-45,-2.00200142164368,1,0.432410200010054,0.0299096000380814,0.185723299975507,0.00995402158941471,0
48,5,634,940,94,45,-2.00200142164368,-1,0.480055800057016,0.029945999966003,0.945815799990669,0.00995402158941471,0
35,5,635,680,68,-45,-2.00200142164368,-1,0.386294099967927,0.0299796999897808,0.687801899970509,0.00995402158941471,1
45,5,636,880,88,-45,-2.00200142164368,1,0.415975500014611,0.0299113695509732,0.882407030439936,0.00995402158941471,0
12,5,637,220,22,45,-2.00200142164368,1,0.527710500056855,0.0299083000281826,0.226286699995399,0.00995402158941471,1
26,5,638,500,50,45,-2.00200142164368,1,0.480027199955657,0.0299533000215888,0.5064080999,0.00995402158941471,1
2,5,639,20,2,-45,-2.00200142164368,1,0.606167299905792,0.0299318000907078,0.0201967000029981,0.00995402158941471,0
10,5,640,180,18,-45,-2.00200142164368,1,0.515620599966496,0.0300081999739632,0.182243600022048,0.00995402158941471,0
24,5,641,460,46,45,-2.00200142164368,1,0.498007600079291,0.0300363999558613,0.464350500027649,0.00995402158941471,1
2,5,642,20,2,-45,-2.00200142164368,-1,0.543520499952137,0.03005080006551,0.0181125999661162,0.00995402158941471,1
30,5,643,580,58,45,-2.00200142164368,1,0.413981900084764,0.0299634999828413,0.580034799990244,0.00995402158941471,1
37,5,644,720,72,45,-2.00200142164368,1,0.484497700002976,0.029837999958545,0.718347900081426,0.00995402158941471,1
40,5,645,780,78,45,-2.00200142164368,1,0.505455699982122,0.029900599969551,0.784450600040145,0.00995402158941471,1
26,5,646,500,50,45,-2.00200142164368,-1,0.43984760006424,0.0299572000512853,0.498190299957059,0.00995402158941471,0
42,5,647,820,82,45,-2.00200142164368,1,0.567574699991383,0.0299123999429867,0.818308200105093,0.00995402158941471,1
31,5,648,600,60,45,-2.00200142164368,-1,0.695847599999979,0.0300040000583977,0.602313600014895,0.00995402158941471,0
46,5,649,900,90,-45,-2.00200142164368,1,0.573243899969384,0.0300343999406323,0.900637199985795,0.00995402158941471,0
23,5,650,440,44,-45,-2.00200142164368,-1,0.633269199985079,0.030009200097993,0.440422999905422,0.00995402158941471,1
37,5,651,720,72,45,-2.00200142164368,1,0.455354499979876,0.0300014000386,0.722346900030971,0.00995402158941471,1
7,5,652,120,12,-45,-2.00200142164368,1,0.55305440002121,0.030008599977009,0.120396599988453,0.00995402158941471,0
50,5,653,980,98,45,-2.00200142164368,-1,0.62733859999571,0.0298770000226796,0.982380799949169,0.00995402158941471,0
5,5,654,80,8,-45,-2.00200142164368,-1,0.499541500001214,0.0299947999883443,0.078424800070934,0.00995402158941471,1
17,5,655,320,32,-45,-2.00200142164368,-1,0.649121599970385,0.0300226000836119,0.320780199952424,0.00995402158941471,1
4,5,656,60,6,-45,-2.00200142164368,-1,0.643302800017409,0.029915300081484,0.0625103999627754,0.00995402158941471,1
15,5,657,280,28,-45,-2.00200142164368,-1,1.04162840009667,0.0300067000789568,0.280603399965912,0.00995402158941471,1
3,5,658,40,4,-45,-2.00200142164368,1,0.567204499966465,0.0299440999515355,0.0424746000207961,0.00995402158941471,0
42,5,659,820,82,-45,-2.00200142164368,1,0.513281099963933,0.0299864000407979,0.824886200018227,0.00995402158941471,0
1,5,660,0,0,-45,-2.00200142164368,1,0.629412999958731,0.0300637000473216,0.00457210000604391,0.00995402158941471,0
33,5,661,640,64,45,-2.00200142164368,1,0.555631599971093,0.0299395000329241,0.646560699911788,0.00995402158941471,1
30,5,662,580,58,45,-2.00200142164368,1,0.528990100021474,0.0300288000144064,0.584684000001289,0.00995402158941471,1
50,5,663,980,98,45,-2.00200142164368,1,0.49289160000626,0.029963199980557,0.980958199943416,0.00995402158941471,1
39,5,664,760,76,45,-2.00200142164368,-1,0.491123700048774,0.029885743977502,0.759118456044234,0.00995402158941471,0
18,5,665,340,34,-45,-2.00200142164368,-1,0.495260800002143,0.0300726999994367,0.346559399971738,0.00995402158941471,1
27,5,666,520,52,-45,-2.00200142164368,1,0.508869399898686,0.0299513998907059,0.524697600048967,0.00995402158941471,0
8,5,667,140,14,45,-2.00200142164368,1,0.603349399985746,0.029982200008817,0.142581699998118,0.00995402158941471,1
5,5,668,80,8,-45,-2.00200142164368,1,0.52703819994349,0.0299706999212503,0.0827778000384569,0.00995402158941471,0
16,5,669,300,30,-45,-2.00200142164368,-1,0.611282799975015,0.0299434000626206,0.30305609991774,0.00995402158941471,1
19,5,670,360,36,45,-2.00200142164368,1,0.38907720008865,0.0298867999808863,0.365211399970576,0.00995402158941471,1
31,5,671,600,60,45,-2.00200142164368,1,0.544678600039333,0.0299850999144837,0.600883300066926,0.00995402158941471,1
8,5,672,140,14,-45,-2.00200142164368,1,0.540799999958836,0.0299349999986589,0.142938299919479,0.00995402158941471,0
12,5,673,220,22,45,-2.00200142164368,1,0.537130899960175,0.0298841000767425,0.225046799983829,0.00995402158941471,1
33,5,674,640,64,45,-2.00200142164368,1,0.540586500079371,0.02995890006423,0.637294900021516,0.00995402158941471,1
9,5,675,160,16,45,-2.00200142164368,1,0.632689899997786,0.0299805999966338,0.161253300029784,0.00995402158941471,1
49,5,676,960,96,-45,-2.00200142164368,-1,0.613123000017367,0.0299664000049233,0.96507160004694,0.00995402158941471,1
32,5,677,620,62,-45,-2.00200142164368,-1,0.451046200003475,0.030004599946551,0.623165099998005,0.00995402158941471,1
27,5,678,520,52,45,-2.00200142164368,1,0.436545500066131,0.0298531999578699,0.517553400015458,0.00995402158941471,1
5,5,679,80,8,-45,-2.00200142164368,-1,0.520607299986295,0.0299291000701487,0.0810713999671862,0.00995402158941471,1
42,5,680,820,82,-45,-2.00200142164368,1,0.672495799954049,0.0299310999689624,0.825241400045343,0.00995402158941471,0
43,5,681,840,84,-45,-2.00200142164368,1,0.582316700019874,0.0299993000226095,0.843338700011373,0.00995402158941471,0
4,5,682,60,6,45,-2.00200142164368,-1,0.536822799942456,0.0299391000298783,0.0652282999362797,0.00995402158941471,0
34,5,683,660,66,-45,-2.00200142164368,1,1.9303875999758,0.0298925000242889,0.663507399964146,0.00995402158941471,0
11,5,684,200,20,45,-2.00200142164368,1,0.544423100072891,0.0300115999998525,0.201199600007385,0.00995402158941471,1
22,5,685,420,42,45,-2.00200142164368,1,0.605300199938938,0.0298834000714123,0.42164660000708,0.00995402158941471,1
28,5,686,540,54,45,-2.00200142164368,1,0.644541200017557,0.0299540999112651,0.541348000057042,0.00995402158941471,1
36,5,687,700,70,-45,-2.00200142164368,-1,0.548535399953835,0.0299725000513718,0.709400699939579,0.00995402158941471,1
32,5,688,620,62,-45,-2.00200142164368,-1,0.40792180004064,0.0300141000188887,0.627068700036034,0.00995402158941471,1
24,5,689,460,46,45,-2.00200142164368,-1,0.482352799968794,0.0300101999891922,0.463563599972986,0.00995402158941471,0
43,5,690,840,84,45,-2.00200142164368,-1,0.546373799908906,0.0299016999779269,0.839684200007468,0.00995402158941471,0
20,5,691,380,38,45,-2.00200142164368,1,0.629976200056262,0.0300277000060305,0.379533799947239,0.00995402158941471,1
11,5,692,200,20,-45,-2.00200142164368,1,0.556509700021707,0.0298895000014454,0.205539599992335,0.00995402158941471,0
28,5,693,540,54,45,-2.00200142164368,1,0.502549299970269,0.0300455000251532,0.547825300018303,0.00995402158941471,1
51,5,694,1000,100,45,-2.00200142164368,-1,0.684274500003085,0.0299463999690488,0.997680500033312,0.00995402158941471,0
34,5,695,660,66,-45,-2.00200142164368,-1,1.0485658000689,0.0299702999182045,0.665483799995854,0.00995402158941471,1
9,5,696,160,16,-45,-2.00200142164368,1,0.418085300014354,0.0300239999778569,0.159929399960674,0.00995402158941471,0
38,5,697,740,74,-45,-2.00200142164368,-1,0.664171700016595,0.0299470999743789,0.746046099928208,0.00995402158941471,1
45,5,698,880,88,45,-2.00200142164368,-1,0.462554899975657,0.0299337999895215,0.883747600018978,0.00995402158941471,0
19,5,699,360,36,-45,-2.00200142164368,-1,0.563904699985869,0.0299304000800475,0.365831599920057,0.00995402158941471,1
15,5,700,280,28,-45,-2.00200142164368,-1,0.673831799998879,0.0299387000268325,0.279805200058036,0.00995402158941471,1
1,5,701,0,0,45,-2.00200142164368,-1,0.688430699985474,0.0299182999879122,0.00961000006645918,0.00995402158941471,0
31,5,702,600,60,-45,-2.00200142164368,-1,0.973878800054081,0.0299078000243753,0.604031199938618,0.00995402158941471,1
46,5,703,900,90,-45,-2.00200142164368,-1,0.882276899996214,0.0299341001082212,0.903779199928977,0.00995402158941471,1
9,5,704,160,16,45,-2.00200142164368,1,0.531937299994752,0.0300707999849692,0.166034699999727,0.00995402158941471,1
17,5,705,320,32,45,-2.00200142164368,-1,0.86011539993342,0.0299755999585614,0.325769000104629,0.00995402158941471,0
26,5,706,500,50,45,-2.00200142164368,-1,0.651751899975352,0.0300530000822619,0.501930899918079,0.00995402158941471,0
17,5,707,320,32,-45,-2.00200142164368,1,0.427992500015534,0.0299239000305533,0.318096300004981,0.00995402158941471,0
23,5,708,440,44,45,-2.00200142164368,1,0.555553499958478,0.0298442000057548,0.438163899932988,0.00995402158941471,1
10,5,709,180,18,45,-2.00200142164368,-1,0.475505399983376,0.0300249001011252,0.182057400001213,0.00995402158941471,0
46,5,710,900,90,45,-2.00200142164368,1,0.465851700049825,0.0299594000680372,0.904092499986291,0.00995402158941471,1
13,5,711,240,24,-45,-2.00200142164368,1,0.761781400069594,0.0299227000214159,0.240488699986599,0.00995402158941471,0
20,5,712,380,38,-45,-2.00200142164368,-1,0.623781300033443,0.0298593220068142,0.378651677980088,0.00995402158941471,1
7,5,713,120,12,-45,-2.00200142164368,1,0.579756899969652,0.0300015000393614,0.126221899990924,0.00995402158941471,0
27,5,714,520,52,45,-2.00200142164368,1,0.455849600024521,0.0299187999917194,0.522635599947535,0.00995402158941471,1
6,5,715,100,10,45,-2.00200142164368,-1,0.505851699970663,0.0298598000081256,0.0963319999864325,0.00995402158941471,0
39,5,716,760,76,45,-2.00200142164368,1,0.475452899932861,0.0298930854769424,0.758598514599726,0.00995402158941471,1
49,5,717,960,96,45,-2.00200142164368,1,0.479232200072147,0.0299515000078827,0.962448199978098,0.00995402158941471,1
13,5,718,240,24,45,-2.00200142164368,1,0.499671700061299,0.0298572999890894,0.246403400087729,0.00995402158941471,1
21,5,719,400,40,-45,-2.00200142164368,1,0.611391599988565,0.0299461999675259,0.406365199945867,0.00995402158941471,0
29,5,720,560,56,-45,-2.00200142164368,-1,0.5232471000636,0.0299301999621093,0.566342500038445,0.00995402158941471,1
35,5,721,680,68,45,-2.00200142164368,-1,0.413550099940039,0.029934799997136,0.684517499990761,0.00995402158941471,0
2,5,722,20,2,45,-2.00200142164368,-1,0.603608700097539,0.0299805999966338,0.0225515000056475,0.00995402158941471,0
21,5,723,400,40,-45,-2.00200142164368,-1,0.503062799922191,0.0300363999558613,0.402544799959287,0.00995402158941471,1
14,5,724,260,26,45,-2.00200142164368,1,0.463300699950196,0.029811599990353,0.258941599982791,0.00995402158941471,1
38,5,725,740,74,-45,-2.00200142164368,1,0.545297199976631,0.0299170000944287,0.736889899941161,0.00995402158941471,0
45,5,726,880,88,45,-2.00200142164368,1,0.517504999996163,0.0299226000206545,0.876786299981177,0.00995402158941471,1
12,5,727,220,22,45,-2.00200142164368,1,0.559344700071961,0.0300129000097513,0.226644799928181,0.00995402158941471,1
6,5,728,100,10,-45,-2.00200142164368,1,0.521384399966337,0.0299159999703988,0.0968267000280321,0.00995402158941471,0
18,5,729,340,34,-45,-2.00200142164368,1,0.460979000083171,0.0300259999930859,0.340819300035946,0.00995402158941471,0
25,5,730,480,48,45,-2.00200142164368,1,0.476941299973987,0.0299647999927402,0.484746999922208,0.00995402158941471,1
41,5,731,800,80,-45,-2.00200142164368,-1,0.445367399952374,0.0298859999747947,0.796912000048906,0.00995402158941471,1
48,5,732,940,94,45,-2.00200142164368,-1,0.965164799941704,0.0299568000482395,0.940893199993297,0.00995402158941471,0
1,5,733,0,0,-45,-2.00200142164368,-1,0.685375900007784,0.0300044999457896,0.00492480001412332,0.00995402158941471,1
30,5,734,580,58,-45,-2.00200142164368,-1,0.920685300021432,0.0298352000536397,0.576960599981248,0.00995402158941471,1
22,5,735,420,42,45,-2.00200142164368,-1,0.549067500047386,0.0300279000075534,0.420722399954684,0.00995402158941471,0
41,5,736,800,80,-45,-2.00200142164368,1,0.837196999927983,0.0300173000432551,0.80357119999826,0.00995402158941471,0
49,5,737,960,96,-45,-2.00200142164368,1,0.529034200008027,0.029931400087662,0.961158199934289,0.00995402158941471,0
21,5,738,400,40,45,-2.00200142164368,1,0.462716500042006,0.0300514000700787,0.40290119999554,0.00995402158941471,1
38,5,739,740,74,45,-2.00200142164368,-1,0.44719440001063,0.0297377171227708,0.739411482936703,0.00995402158941471,0
15,5,740,280,28,45,-2.00200142164368,-1,0.682929200003855,0.0298967999406159,0.279161600046791,0.00995402158941471,0
40,5,741,780,78,45,-2.00200142164368,1,0.755043099983595,0.0298435000004247,0.783423500019126,0.00995402158941471,1
34,5,742,660,66,-45,-2.00200142164368,-1,0.542854400002398,0.0298126804409549,0.659215319552459,0.00995402158941471,1
16,5,743,300,30,45,-2.00200142164368,-1,0.580445399973541,0.0300186000531539,0.301177399931476,0.00995402158941471,0
14,5,744,260,26,45,-2.00200142164368,-1,0.532463100040331,0.0299641001038253,0.26132539997343,0.00995402158941471,0
24,5,745,460,46,45,-2.00200142164368,-1,0.512902399990708,0.029842899995856,0.465255900053307,0.00995402158941471,0
25,5,746,480,48,-45,-2.00200142164368,-1,0.444815200055018,0.0297865634784102,0.477480136556551,0.00995402158941471,1
18,5,747,340,34,-45,-2.00200142164368,-1,0.480603400035761,0.0299172999802977,0.345608000061475,0.00995402158941471,1
3,5,748,40,4,45,-2.00200142164368,-1,0.512596799992025,0.029990200069733,0.0413377999793738,0.00995402158941471,0
36,5,749,700,70,-45,-2.00200142164368,-1,0.358968199929222,0.0298302000155672,0.699653799994849,0.00995402158941471,1
35,5,750,680,68,45,-2.00200142164368,-1,0.372646100004204,0.0299426853889599,0.677619214635342,0.00995402158941471,0
44,5,751,860,86,-45,-2.00200142164368,-1,0.326179399969988,0.0300802999408916,0.859380900044926,0.00995402158941471,1
14,5,752,260,26,-45,-2.00200142164368,-1,0.426656600087881,0.0299323999788612,0.263713499996811,0.00995402158941471,1
47,5,753,920,92,-45,-2.00200142164368,-1,0.340619600028731,0.0299874999327585,0.925322100054473,0.00995402158941471,1
51,5,754,1000,100,45,-2.00200142164368,-1,0.481120600015856,0.0300167999230325,1.0015705000842,0.00995402158941471,0
47,5,755,920,92,45,-2.00200142164368,-1,0.444105500006117,0.0298460000194609,0.917926299967803,0.00995402158941471,0
20,5,756,380,38,-45,-2.00200142164368,-1,0.54435049998574,0.0299548000330105,0.377613199991174,0.00995402158941471,1
32,5,757,620,62,-45,-2.00200142164368,-1,0.542017599917017,0.0300225999671966,0.619763999944553,0.00995402158941471,1
36,5,758,700,70,-45,-2.00200142164368,-1,0.556414999999106,0.03005599998869,0.701563099981286,0.00995402158941471,1
3,5,759,40,4,-45,-2.00200142164368,1,0.61258800001815,0.0300068999640644,0.0375860000494868,0.00995402158941471,0
22,5,760,420,42,-45,-2.00200142164368,1,1.2085143000586,0.0299418000504375,0.425677599967457,0.00995402158941471,0
8,5,761,140,14,-45,-2.00200142164368,1,2.59830080007669,0.0299328000983223,0.139982099994086,0.00995402158941471,0
23,5,762,440,44,-45,-2.00200142164368,1,0.724288100027479,0.0299347487743944,0.437867451226339,0.00995402158941471,0
19,5,763,360,36,45,-2.00200142164368,-1,0.562159599969164,0.0299696000292897,0.359773600008339,0.00995402158941471,0
33,5,764,640,64,-45,-2.00200142164368,-1,0.568141900002956,0.0300234999740496,0.641751300077885,0.00995402158941471,1
6,5,765,100,10,45,-2.00200142164368,1,0.881823500036262,0.0300443000160158,0.0960180999245495,0.00995402158941471,1
34,6,766,660,66,45,-2.00200142164368,1,0.637964199995622,0.0299233000259846,0.659839499974623,0.00995402158941471,1
29,6,767,560,56,-45,-2.00200142164368,-1,0.510047900024801,0.0299263000488281,0.563954000012018,0.00995402158941471,1
4,6,768,60,6,45,-2.00200142164368,1,0.586243099998683,0.0300113999983296,0.0561407000059262,0.00995402158941471,1
51,6,769,1000,100,45,-2.00200142164368,1,0.546202500001527,0.0299231841927394,1.00018911575899,0.00995402158941471,1
42,6,770,820,82,45,-2.00200142164368,1,0.511351400054991,0.0299092853674665,0.818411714630201,0.00995402158941471,1
21,6,771,400,40,-45,-2.00200142164368,-1,0.465825699968264,0.0299072000198066,0.400178999989294,0.00995402158941471,1
21,6,772,400,40,-45,-2.00200142164368,1,0.417916400008835,0.0300098999869078,0.399991099955514,0.00995402158941471,0
48,6,773,940,94,-45,-2.00200142164368,-1,0.617587900022045,0.0298567999852821,0.944234499940649,0.00995402158941471,1
32,6,774,620,62,-45,-2.00200142164368,-1,0.443596400087699,0.0299941999837756,0.622068600030616,0.00995402158941471,1
26,6,775,500,50,45,-2.00200142164368,-1,0.46213910006918,0.0299579999409616,0.507070500054397,0.00995402158941471,0
50,6,776,980,98,-45,-2.00200142164368,-1,0.532006000052206,0.0299022999824956,0.982262199977413,0.00995402158941471,1
20,6,777,380,38,45,-2.00200142164368,1,0.475816100020893,0.030016400036402,0.382183199981228,0.00995402158941471,1
17,6,778,320,32,-45,-2.00200142164368,-1,0.713234200025909,0.0301119000650942,0.320229699951597,0.00995402158941471,1
40,6,779,780,78,-45,-2.00200142164368,-1,0.421548599959351,0.0299954999936745,0.780294900061563,0.00995402158941471,1
26,6,780,500,50,-45,-2.00200142164368,-1,0.553638100042008,0.0398381148697808,0.502727085142396,0.00995402158941471,1
47,6,781,920,92,-45,-2.00200142164368,1,0.387650800053962,0.0298913000151515,0.918275999953039,0.00995402158941471,0
9,6,782,160,16,45,-2.00200142164368,1,0.629948799964041,0.0299900999525562,0.164017600007355,0.00995402158941471,1
14,6,783,260,26,-45,-2.00200142164368,1,0.613815699936822,0.0298971000593156,0.260701499995776,0.00995402158941471,0
16,6,784,300,30,45,-2.00200142164368,-1,0.473635599948466,0.0298938000341877,0.296776699949987,0.00995402158941471,0
22,6,785,420,42,-45,-2.00200142164368,1,0.455161000019871,0.0298780902521685,0.418215609737672,0.00995402158941471,0
27,6,786,520,52,-45,-2.00200142164368,1,0.444062400027178,0.0298737999983132,0.52673759998288,0.00995402158941471,0
3,6,787,40,4,-45,-2.00200142164368,1,0.517705200007185,0.0299988000188023,0.0363723000045866,0.00995402158941471,0
35,6,788,680,68,-45,-2.00200142164368,1,0.539241500082426,0.0299264999339357,0.686669400078245,0.00995402158941471,0
19,6,789,360,36,-45,-2.00200142164368,1,0.441490800003521,0.0300058999564499,0.360389300039969,0.00995402158941471,0
22,6,790,420,42,45,-2.00200142164368,1,0.485470200073905,0.0299223000183702,0.420616599963978,0.00995402158941471,1
36,6,791,700,70,-45,-2.00200142164368,1,0.493516399990767,0.0299677000148222,0.700723799993284,0.00995402158941471,0
2,6,792,20,2,45,-2.00200142164368,1,0.471285399980843,0.0298660000553355,0.018855300033465,0.00995402158941471,1
18,6,793,340,34,45,-2.00200142164368,1,0.391151000047103,0.0298679999541491,0.338532700086944,0.00995402158941471,1
37,6,794,720,72,45,-2.00200142164368,1,0.443613399984315,0.0299370000138879,0.726091900025494,0.00995402158941471,1
24,6,795,460,46,45,-2.00200142164368,-1,0.881461199955083,0.0298770000226796,0.464872099924833,0.00995402158941471,0
7,6,796,120,12,45,-2.00200142164368,1,0.493492900044657,0.0299040999962017,0.124851800035685,0.00995402158941471,1
44,6,797,860,86,45,-2.00200142164368,1,0.583004999905825,0.030046199914068,0.866872300044633,0.00995402158941471,1
49,6,798,960,96,45,-2.00200142164368,1,0.485200199997053,0.0299934999784455,0.964821000001393,0.00995402158941471,1
16,6,799,300,30,-45,-2.00200142164368,1,0.488172599929385,0.030170546611771,0.304663674789481,0.00995402158941471,0
33,6,800,640,64,-45,-2.00200142164368,1,0.498823200003244,0.0297783805290237,0.639090319513343,0.00995402158941471,0
30,6,801,580,58,45,-2.00200142164368,1,0.641441600047983,0.0299320999765769,0.58518950000871,0.00995402158941471,1
38,6,802,740,74,45,-2.00200142164368,1,0.415216699941084,0.0298391219694167,0.73906467796769,0.00995402158941471,1
51,6,803,1000,100,-45,-2.00200142164368,1,0.446761000086553,0.0300170999253169,1.00321700004861,0.00995402158941471,0
11,6,804,200,20,-45,-2.00200142164368,1,0.48503520002123,0.0298019391484559,0.197328460868448,0.00995402158941471,0
30,6,805,580,58,45,-2.00200142164368,1,0.438902800087817,0.0299024537671357,0.579353246255778,0.00995402158941471,1
8,6,806,140,14,-45,-2.00200142164368,1,0.648698300006799,0.0298917999025434,0.145063600037247,0.00995402158941471,0
1,6,807,0,0,45,-2.00200142164368,1,0.541208700044081,0.029996500001289,0.00493179995100945,0.00995402158941471,1
14,6,808,260,26,45,-2.00200142164368,1,0.456784999929368,0.0297597000608221,0.257214399985969,0.00995402158941471,1
49,6,809,960,96,-45,-2.00200142164368,1,0.452818099991418,0.0299184999894351,0.97296909999568,0.00995402158941471,0
26,6,810,500,50,-45,-2.00200142164368,-1,0.48255189997144,0.0299664000049233,0.503207999980077,0.00995402158941471,1
15,6,811,280,28,45,-2.00200142164368,-1,0.582975800032727,0.0299850000301376,0.28290869994089,0.00995402158941471,0
12,6,812,220,22,-45,-2.00200142164368,-1,1.48295680002775,0.0299939999822527,0.223127800039947,0.00995402158941471,1
32,6,813,620,62,45,-2.00200142164368,1,0.474984199972823,0.0299007999710739,0.623168800026178,0.00995402158941471,1
41,6,814,800,80,45,-2.00200142164368,1,0.585014599957503,0.0299346999963745,0.801010900060646,0.00995402158941471,1
2,6,815,20,2,45,-2.00200142164368,1,0.565031099948101,0.0300223999656737,0.0213657000567764,0.00995402158941471,1
8,6,816,140,14,-45,-2.00200142164368,1,0.502473700093105,0.0299378000199795,0.139277399983257,0.00995402158941471,0
34,6,817,660,66,-45,-2.00200142164368,1,0.556438999949023,0.0299920000834391,0.661210099933669,0.00995402158941471,0
28,6,818,540,54,45,-2.00200142164368,-1,1.64045509998687,0.0299948999891058,0.54552279994823,0.00995402158941471,0
41,6,819,800,80,45,-2.00200142164368,1,0.604571400093846,0.0299269000533968,0.797623999998905,0.00995402158941471,1
15,6,820,280,28,-45,-2.00200142164368,1,0.508658500039019,0.0298809999367222,0.277417600038461,0.00995402158941471,0
40,6,821,780,78,-45,-2.00200142164368,1,1.21490879997145,0.0300033000530675,0.781298500020057,0.00995402158941471,0
6,6,822,100,10,-45,-2.00200142164368,1,0.502662599901669,0.0298648999305442,0.101713399984874,0.00995402158941471,0
7,6,823,120,12,45,-2.00200142164368,1,0.510310300043784,0.0300050000660121,0.123093300033361,0.00995402158941471,1
10,6,824,180,18,45,-2.00200142164368,-1,0.784947599982843,0.0297403758158907,0.17760442418512,0.00995402158941471,0
42,6,825,820,82,45,-2.00200142164368,-1,0.502538700005971,0.0298625000286847,0.819786900072359,0.00995402158941471,0
13,6,826,240,24,-45,-2.00200142164368,1,0.514811299974099,0.0298358000582084,0.239733000053093,0.00995402158941471,0
11,6,827,200,20,-45,-2.00200142164368,-1,0.51464039995335,0.0299317999742925,0.206188600044698,0.00995402158941471,1
38,6,828,740,74,45,-2.00200142164368,1,0.574535400024615,0.0297854536911473,0.739969146321528,0.00995402158941471,1
6,6,829,100,10,45,-2.00200142164368,-1,1.13845030008815,0.0299407999264076,0.103502199985087,0.00995402158941471,0
47,6,830,920,92,-45,-2.00200142164368,1,0.540391299990006,0.0300109999952838,0.925853000022471,0.00995402158941471,0
50,6,831,980,98,-45,-2.00200142164368,1,0.468286400078796,0.0300117000006139,0.981870300020091,0.00995402158941471,0
43,6,832,840,84,45,-2.00200142164368,1,0.528333100024611,0.0300565999932587,0.841542500071228,0.00995402158941471,1
43,6,833,840,84,45,-2.00200142164368,1,0.468051700037904,0.0300055000698194,0.845834399922751,0.00995402158941471,1
30,6,834,580,58,45,-2.00200142164368,1,0.679698999971151,0.0299091618508101,0.58624773810152,0.00995402158941471,1
3,6,835,40,4,-45,-2.00200142164368,1,0.574150800006464,0.0299849000293761,0.0441665999824181,0.00995402158941471,0
33,6,836,640,64,45,-2.00200142164368,1,0.611728199990466,0.0300334000494331,0.645990199991502,0.00995402158941471,1
12,6,837,220,22,-45,-2.00200142164368,-1,0.443484199931845,0.0298133000032976,0.218191800056957,0.00995402158941471,1
27,6,838,520,52,-45,-2.00200142164368,-1,0.469079899950884,0.0301917599281296,0.523595300037414,0.00995402158941471,1
29,6,839,560,56,45,-2.00200142164368,1,0.491627599927597,0.0299186001066118,0.566002399893478,0.00995402158941471,1
23,6,840,440,44,-45,-2.00200142164368,-1,0.776054100017063,0.0299554000375792,0.442068099975586,0.00995402158941471,1
21,6,841,400,40,45,-2.00200142164368,1,0.435988700017333,0.0299722000490874,0.404071899945848,0.00995402158941471,1
41,6,842,800,80,45,-2.00200142164368,1,0.579513299977407,0.0298204586142674,0.798540741321631,0.00995402158941471,1
39,6,843,760,76,45,-2.00200142164368,1,0.523544800002128,0.0300228999694809,0.766377500025555,0.00995402158941471,1
25,6,844,480,48,-45,-2.00200142164368,1,0.6695426000515,0.0298870999831706,0.484009100007825,0.00995402158941471,0
31,6,845,600,60,45,-2.00200142164368,1,0.499666999909095,0.0298550000879914,0.598337000003085,0.00995402158941471,1
46,6,846,900,90,45,-2.00200142164368,1,0.511712600011379,0.0298787757055834,0.89861842431128,0.00995402158941471,1
45,6,847,880,88,45,-2.00200142164368,1,0.475374699919485,0.0299281000625342,0.886262899963185,0.00995402158941471,1
37,6,848,720,72,-45,-2.00200142164368,1,0.419239799957722,0.0299219000153244,0.71838790003676,0.00995402158941471,0
24,6,849,460,46,-45,-2.00200142164368,1,1.63944840000477,0.0298216171795502,0.457562982803211,0.00995402158941471,0
5,6,850,80,8,-45,-2.00200142164368,1,0.547405199962668,0.0298437000019476,0.0785028000827879,0.00995402158941471,0
4,6,851,60,6,45,-2.00200142164368,1,0.575472999946214,0.0299320999765769,0.0583150000311434,0.00995402158941471,1
40,6,852,780,78,45,-2.00200142164368,-1,0.557306800037622,0.0299128999467939,0.780464300070889,0.00995402158941471,0
42,6,853,820,82,45,-2.00200142164368,1,0.497461599996313,0.029952900018543,0.816814300022088,0.00995402158941471,1
32,6,854,620,62,-45,-2.00200142164368,-1,0.409261499997228,0.0299736000597477,0.624435700010508,0.00995402158941471,1
51,6,855,1000,100,-45,-2.00200142164368,-1,0.603586599929258,0.0298982999520376,1.00649279996287,0.00995402158941471,1
48,6,856,940,94,45,-2.00200142164368,1,0.527056699967943,0.0298593634506688,0.938988036592491,0.00995402158941471,1
45,6,857,880,88,-45,-2.00200142164368,1,1.22961669997312,0.0299733999418095,0.876899600028992,0.00995402158941471,0
1,6,858,0,0,45,-2.00200142164368,1,1.26326900010463,0.0299120000563562,0.00283289991784841,0.00995402158941471,1
9,6,859,160,16,45,-2.00200142164368,1,1.10730679996777,0.0298766634659842,0.158684836584143,0.00995402158941471,1
