isi,block,trial,isi_ms,isi_frames,theta,log_cnt,resp,rt,stim_duration,blank_duration,cnt,correct
33,1,1,640,64,-45,-1.8546873026985,-1,0.546695,0.0482276000002457,0.645238199999767,0.0139737412527265,1
6,1,2,100,10,45,-1.8546873026985,1,0.655470899999727,0.0456859000000804,0.0989885999997568,0.0139737412527265,1
47,1,3,920,92,-45,-1.8546873026985,-1,0.426720500000101,0.0455941000000166,0.919261800000186,0.0139737412527265,1
32,1,4,620,62,45,-1.8546873026985,1,0.539590100000169,0.0426210000000538,0.617361099999926,0.0139737412527265,1
23,1,5,440,44,45,-1.8546873026985,1,0.553551399999833,0.0473550000001524,0.438402799999949,0.0139737412527265,1
30,1,6,580,58,45,-1.8546873026985,1,0.427126899999621,0.0485152000001108,0.579913000000033,0.0139737412527265,1
35,1,7,680,68,-45,-1.8546873026985,-1,0.69945800000005,0.0463738999997076,0.677684200000385,0.0139737412527265,1
42,1,8,820,82,-45,-1.8546873026985,-1,0.594481600000108,0.0443589999999858,0.816780000000108,0.0139737412527265,1
24,1,9,460,46,45,-1.8546873026985,1,0.794283700000051,0.0425936000001457,0.458700099999987,0.0139737412527265,1
35,1,10,680,68,-45,-1.8546873026985,-1,1.47713590000012,0.0496923999999126,0.680741300000136,0.0139737412527265,1
51,1,11,1000,100,-45,-1.8546873026985,-1,0.570564300000115,0.0470500000001266,0.998380099999849,0.0139737412527265,1
51,1,12,1000,100,-45,-1.8546873026985,-1,0.575508200000058,0.0434825000002093,0.996922599999834,0.0139737412527265,1
19,1,13,360,36,-45,-1.8546873026985,-1,0.623106000000007,0.0437137999997503,0.357091200000013,0.0139737412527265,1
41,1,14,800,80,45,-1.8546873026985,-1,0.697298500000215,0.0417018000002827,0.796746499999699,0.0139737412527265,0
15,1,15,280,28,45,-1.8546873026985,1,0.591114400000151,0.0440465000001495,0.276764299999741,0.0139737412527265,1
45,1,16,880,88,45,-1.8546873026985,1,0.555443799999921,0.0403391999998348,0.876594000000296,0.0139737412527265,1
39,1,17,760,76,45,-1.8546873026985,1,3.65519669999958,0.048592699999972,0.760204599999724,0.0139737412527265,1
3,1,18,40,4,-45,-1.8546873026985,-1,0.780573200000163,0.0450141000001167,0.038731000000098,0.0139737412527265,1
13,1,19,240,24,-45,-1.8546873026985,1,0.538390299999719,0.0405471999997644,0.236699900000076,0.0139737412527265,0
16,1,20,300,30,45,-1.8546873026985,1,0.581107900000006,0.047628799999984,0.299120300000141,0.0139737412527265,1
4,1,21,60,6,-45,-1.8546873026985,-1,0.671381300000121,0.0405080000000453,0.0559912999997323,0.0139737412527265,1
31,1,22,600,60,45,-1.8546873026985,1,0.518259199999648,0.0495556000000761,0.600066499999684,0.0139737412527265,1
50,1,23,980,98,-45,-1.8546873026985,-1,0.645563000000038,0.0410636000001432,0.976919499999894,0.0139737412527265,1
24,1,24,460,46,45,-1.8546873026985,1,0.615036200000304,0.0455698999999186,0.45958470000005,0.0139737412527265,1
28,1,25,540,54,45,-1.8546873026985,1,0.588135500000135,0.0431533999999374,0.536951800000224,0.0139737412527265,1
29,1,26,560,56,45,-1.8546873026985,1,0.458664499999941,0.0495946999999433,0.563603900000089,0.0139737412527265,1
3,1,27,40,4,-45,-1.8546873026985,1,0.703617799999847,0.04457820000016,0.0361847999997735,0.0139737412527265,0
24,1,28,460,46,-45,-1.8546873026985,1,0.42448719999993,0.0453530999998293,0.458124300000236,0.0139737412527265,0
40,1,29,780,78,45,-1.8546873026985,1,0.449993900000209,0.0492361000001438,0.780536399999619,0.0139737412527265,1
2,1,30,20,2,45,-1.8546873026985,1,1.47267760000022,0.0463294000001042,0.0170079999998052,0.0139737412527265,1
42,1,31,820,82,-45,-1.8546873026985,-1,0.548555100000158,0.0425814000000173,0.816662599999745,0.0139737412527265,1
12,1,32,220,22,-45,-1.8546873026985,1,0.758702200000243,0.0454100000001745,0.219620999999734,0.0139737412527265,0
30,1,33,580,58,45,-1.8546873026985,1,0.550578500000029,0.0411275000001297,0.576458199999706,0.0139737412527265,1
18,1,34,340,34,-45,-1.8546873026985,-1,0.516900299999634,0.0420079999998961,0.336806700000125,0.0139737412527265,1
51,1,35,1000,100,45,-1.8546873026985,1,0.453662399999757,0.0495409000000109,1.00047790000008,0.0139737412527265,1
18,1,36,340,34,-45,-1.8546873026985,-1,0.483689300000151,0.0511553999999705,0.345181499999853,0.0139737412527265,1
13,1,37,240,24,45,-1.8546873026985,1,0.522737899999811,0.0497783000000709,0.24317689999998,0.0139737412527265,1
34,1,38,660,66,-45,-1.8546873026985,-1,0.86284650000016,0.0456523999996534,0.65959870000006,0.0139737412527265,1
31,1,39,600,60,-45,-1.8546873026985,-1,0.591650700000173,0.043520400000034,0.596818200000143,0.0139737412527265,1
9,1,40,160,16,-45,-1.8546873026985,-1,0.859387599999991,0.0496156999997766,0.163164400000369,0.0139737412527265,1
49,1,41,960,96,45,-1.8546873026985,1,0.522435800000039,0.0403827000000092,0.957042799999726,0.0139737412527265,1
16,1,42,300,30,-45,-1.8546873026985,-1,0.923085599999922,0.0424117597167424,0.298154840283587,0.0139737412527265,1
22,1,43,420,42,-45,-1.8546873026985,-1,0.543456200000037,0.0449031000002833,0.419272699999965,0.0139737412527265,1
1,1,44,0,0,-45,-1.8546873026985,1,1.0776821999998,0.0495053999998163,0.00865690000000541,0.0139737412527265,0
38,1,45,740,74,45,-1.8546873026985,1,0.638244899999791,0.0469670999996197,0.738585800000237,0.0139737412527265,1
21,1,46,400,40,-45,-1.8546873026985,-1,0.507008900000073,0.0497021999999561,0.403298599999744,0.0139737412527265,1
10,1,47,180,18,45,-1.8546873026985,1,1.07467509999969,0.0447205000000395,0.176770000000033,0.0139737412527265,1
5,1,48,80,8,-45,-1.8546873026985,-1,0.569401700000071,0.0419301000001724,0.0763315999997758,0.0139737412527265,1
34,1,49,660,66,45,-1.8546873026985,1,0.504317100000208,0.0497264000000541,0.662151199999698,0.0139737412527265,1
2,1,50,20,2,-45,-1.8546873026985,-1,0.645509400000265,0.0496282999997675,0.02474680000023,0.0139737412527265,1
9,1,51,160,16,-45,-1.8546873026985,-1,0.52010590000009,0.0497280999998111,0.16616010000007,0.0139737412527265,1
13,1,52,240,24,45,-1.8546873026985,1,0.408530700000028,0.0498700000002827,0.245234799999707,0.0139737412527265,1
35,1,53,680,68,45,-1.8546873026985,1,0.616740599999957,0.0478934999996454,0.679356699999971,0.0139737412527265,1
36,1,54,700,70,45,-1.8546873026985,-1,0.393734700000095,0.0442203000002337,0.697727299999769,0.0139737412527265,0
8,1,55,140,14,-45,-1.8546873026985,-1,0.52905839999994,0.0496486000001823,0.141389899999922,0.0139737412527265,1
34,1,56,660,66,-45,-1.8546873026985,1,0.480117000000064,0.0450451329247699,0.65838376707552,0.0139737412527265,0
21,1,57,400,40,-45,-1.8546873026985,1,0.563518599999952,0.0452870633962448,0.398939736604007,0.0139737412527265,0
21,1,58,400,40,-45,-1.8546873026985,-1,0.530621299999893,0.0455514000000221,0.399465899999996,0.0139737412527265,1
17,1,59,320,32,45,-1.8546873026985,1,0.397014399999989,0.0484881000002133,0.322482300000047,0.0139737412527265,1
44,1,60,860,86,45,-1.8546873026985,1,0.509175800000321,0.0499790000003486,0.86454569999978,0.0139737412527265,1
14,1,61,260,26,45,-1.8546873026985,1,0.484575899999982,0.0427801999999247,0.256578600000012,0.0139737412527265,1
33,1,62,640,64,-45,-1.8546873026985,1,0.36179570000013,0.04159350000009,0.636565499999961,0.0139737412527265,0
37,1,63,720,72,45,-1.8546873026985,1,0.584333799999968,0.0511099999998805,0.724483500000133,0.0139737412527265,1
5,1,64,80,8,45,-1.8546873026985,1,0.567447900000388,0.0505185000001802,0.085975800000142,0.0139737412527265,1
7,1,65,120,12,45,-1.8546873026985,1,0.715471600000001,0.0454233000000386,0.119108500000038,0.0139737412527265,1
23,1,66,440,44,45,-1.8546873026985,-1,0.8800954000003,0.0499118000002454,0.445969100000184,0.0139737412527265,0
20,1,67,380,38,45,-1.8546873026985,1,0.541634999999587,0.0497111999998197,0.384976300000289,0.0139737412527265,1
46,1,68,900,90,-45,-1.8546873026985,-1,1.40879989999985,0.0442121292448974,0.898815070755063,0.0139737412527265,1
43,1,69,840,84,45,-1.8546873026985,1,0.524329800000032,0.0455156000002717,0.838451499999792,0.0139737412527265,1
4,1,70,60,6,-45,-1.8546873026985,1,0.695383599999786,0.0469303999998374,0.0576472000002468,0.0139737412527265,0
2,1,71,20,2,-45,-1.8546873026985,-1,0.572104099999706,0.0488362000000961,0.018909899999926,0.0139737412527265,1
18,1,72,340,34,45,-1.8546873026985,1,0.455333500000052,0.0505975999999464,0.341742600000089,0.0139737412527265,1
44,1,73,860,86,-45,-1.8546873026985,-1,0.478422900000169,0.0411196000000018,0.856146799999806,0.0139737412527265,1
47,1,74,920,92,45,-1.8546873026985,1,0.539677300000221,0.0449707999996463,0.919218800000181,0.0139737412527265,1
48,1,75,940,94,45,-1.8546873026985,1,0.747396200000367,0.044530599999689,0.936212399999931,0.0139737412527265,1
9,1,76,160,16,-45,-1.8546873026985,1,0.667465699999866,0.049548699999832,0.16299140000001,0.0139737412527265,0
8,1,77,140,14,-45,-1.8546873026985,-1,0.479169600000205,0.0497073999999884,0.143097099999977,0.0139737412527265,1
49,1,78,960,96,-45,-1.8546873026985,-1,0.69435760000033,0.0445509999999558,0.957079700000122,0.0139737412527265,1
20,1,79,380,38,45,-1.8546873026985,1,0.954688100000112,0.0444966000000022,0.376723200000015,0.0139737412527265,1
39,1,80,760,76,-45,-1.8546873026985,-1,0.564204600000267,0.0497789999999441,0.762036500000249,0.0139737412527265,1
1,1,81,0,0,45,-1.8546873026985,1,0.725206299999627,0.0406754999999066,0.00145689999999377,0.0139737412527265,1
33,1,82,640,64,-45,-1.8546873026985,-1,0.59283430000005,0.039992699999857,0.646656599999915,0.0139737412527265,1
29,1,83,560,56,-45,-1.8546873026985,-1,0.535476800000197,0.0425935329249114,0.558207867075453,0.0139737412527265,1
36,1,84,700,70,-45,-1.8546873026985,1,0.526187799999661,0.0403510999999526,0.696789999999964,0.0139737412527265,0
11,1,85,200,20,-45,-1.8546873026985,-1,0.546409099999892,0.0498408999997082,0.20364120000022,0.0139737412527265,1
28,1,86,540,54,45,-1.8546873026985,1,0.412741000000096,0.049677900000006,0.545442999999977,0.0139737412527265,1
32,1,87,620,62,-45,-1.8546873026985,-1,0.494041899999957,0.0407859000001736,0.616782199999761,0.0139737412527265,1
43,1,88,840,84,45,-1.8546873026985,1,0.432119800000237,0.0430221999999958,0.837030600000162,0.0139737412527265,1
26,1,89,500,50,-45,-1.8546873026985,-1,1.56345220000003,0.0487740999997186,0.500136600000133,0.0139737412527265,1
37,1,90,720,72,45,-1.8546873026985,1,0.489835100000164,0.0507369000001745,0.72354630000018,0.0139737412527265,1
16,1,91,300,30,-45,-1.8546873026985,-1,0.480106800000158,0.0499776000001475,0.302231299999676,0.0139737412527265,1
10,1,92,180,18,-45,-1.8546873026985,1,0.543456700000206,0.0451936999997997,0.179280400000152,0.0139737412527265,0
45,1,93,880,88,-45,-1.8546873026985,1,0.4824736999999,0.0455857000001743,0.879636799999844,0.0139737412527265,0
20,1,94,380,38,-45,-1.8546873026985,1,0.701928299999963,0.0415944999999738,0.376462700000047,0.0139737412527265,0
23,1,95,440,44,45,-1.8546873026985,1,0.496250400000008,0.0494917999999416,0.445906299999933,0.0139737412527265,1
5,1,96,80,8,-45,-1.8546873026985,-1,0.599483599999985,0.0444385621694892,0.0763622378303808,0.0139737412527265,1
44,1,97,860,86,-45,-1.8546873026985,-1,0.847350700000334,0.0405180999996446,0.856130699999994,0.0139737412527265,1
27,1,98,520,52,45,-1.8546873026985,1,1.14690860000019,0.0468716000000313,0.518213800000012,0.0139737412527265,1
46,1,99,900,90,45,-1.8546873026985,1,0.498494899999969,0.0447574999998324,0.896274799999901,0.0139737412527265,1
14,1,100,260,26,45,-1.8546873026985,1,0.460780800000066,0.0477531000001363,0.259200899999996,0.0139737412527265,1
28,1,101,540,54,45,-1.8546873026985,1,0.362210300000243,0.0443632000001344,0.537546099999872,0.0139737412527265,1
26,1,102,500,50,-45,-1.8546873026985,-1,0.471344900000076,0.0509283000001233,0.501415499999894,0.0139737412527265,1
45,1,103,880,88,45,-1.8546873026985,1,0.551485200000116,0.0506313999999293,0.885775400000057,0.0139737412527265,1
41,1,104,800,80,45,-1.8546873026985,1,0.427427200000238,0.0402552000000469,0.796168200000011,0.0139737412527265,1
11,1,105,200,20,45,-1.8546873026985,1,0.513436400000046,0.0415878000003431,0.196579999999813,0.0139737412527265,1
1,1,106,0,0,45,-1.8546873026985,1,0.501880600000277,0.0507787000001372,0.00766049999992902,0.0139737412527265,1
17,1,107,320,32,45,-1.8546873026985,1,0.442295899999863,0.0409319999998843,0.316533900000195,0.0139737412527265,1
43,1,108,840,84,45,-1.8546873026985,1,0.722322800000256,0.0407484999996086,0.836928100000023,0.0139737412527265,1
7,1,109,120,12,-45,-1.8546873026985,1,0.559584300000097,0.0427834000001894,0.117637299999842,0.0139737412527265,0
12,1,110,220,22,-45,-1.8546873026985,1,0.594372599999588,0.0494690000000446,0.220238299999892,0.0139737412527265,0
31,1,111,600,60,45,-1.8546873026985,-1,0.496975300000031,0.0424407999998948,0.59684900000002,0.0139737412527265,0
36,1,112,700,70,45,-1.8546873026985,1,0.783237199999803,0.0496046000002934,0.70296529999996,0.0139737412527265,1
27,1,113,520,52,45,-1.8546873026985,-1,0.558802000000014,0.0429991000000882,0.518099700000221,0.0139737412527265,0
29,1,114,560,56,-45,-1.8546873026985,1,0.488176999999723,0.0427072000002227,0.556800699999712,0.0139737412527265,0
47,1,115,920,92,-45,-1.8546873026985,1,0.49563629999966,0.0427566999996998,0.917797700000392,0.0139737412527265,0
26,1,116,500,50,45,-1.8546873026985,1,2.35749910000004,0.041631299999608,0.496715900000254,0.0139737412527265,1
15,1,117,280,28,-45,-1.8546873026985,-1,0.574809000000187,0.0445978000002469,0.276798399999734,0.0139737412527265,1
6,1,118,100,10,45,-1.8546873026985,1,0.502495599999747,0.0411618000002818,0.0963683999998466,0.0139737412527265,1
50,1,119,980,98,45,-1.8546873026985,1,1.04580409999971,0.0414550000000418,0.976733999999851,0.0139737412527265,1
19,1,120,360,36,45,-1.8546873026985,-1,0.706456399999752,0.0495722000000569,0.364199000000099,0.0139737412527265,0
40,1,121,780,78,45,-1.8546873026985,-1,0.634768099999746,0.0446120999999948,0.776793100000305,0.0139737412527265,0
32,1,122,620,62,45,-1.8546873026985,1,0.621610099999998,0.0416631999996753,0.616826800000126,0.0139737412527265,1
30,1,123,580,58,45,-1.8546873026985,1,0.571631199999956,0.0487171999998282,0.57955179999999,0.0139737412527265,1
3,1,124,40,4,45,-1.8546873026985,1,0.962170899999819,0.0513333999997485,0.0425081000003047,0.0139737412527265,1
48,1,125,940,94,45,-1.8546873026985,1,0.584932699999626,0.0453158000000258,0.937702300000183,0.0139737412527265,1
46,1,126,900,90,-45,-1.8546873026985,-1,1.36743139999999,0.0493073000002369,0.902774399999998,0.0139737412527265,1
22,1,127,420,42,45,-1.8546873026985,1,0.822654200000215,0.0404525999997531,0.416853700000047,0.0139737412527265,1
19,1,128,360,36,-45,-1.8546873026985,1,0.56447049999997,0.0495875999999953,0.361847000000125,0.0139737412527265,0
25,1,129,480,48,-45,-1.8546873026985,-1,1.09125690000019,0.0459489999998368,0.479090199999973,0.0139737412527265,1
49,1,130,960,96,-45,-1.8546873026985,1,0.5707653999998,0.0403707000000395,0.956510299999991,0.0139737412527265,0
25,1,131,480,48,-45,-1.8546873026985,-1,0.663301300000057,0.0440475000000333,0.47673020000002,0.0139737412527265,1
6,1,132,100,10,-45,-1.8546873026985,-1,0.70735360000026,0.0442636000002494,0.0963582999997925,0.0139737412527265,1
10,1,133,180,18,45,-1.8546873026985,1,0.913383900000099,0.0450906999999461,0.177473499999905,0.0139737412527265,1
48,1,134,940,94,45,-1.8546873026985,1,0.56651439999996,0.0456399999998212,0.93967049999992,0.0139737412527265,1
39,1,135,760,76,45,-1.8546873026985,1,0.481510699999944,0.04159350000009,0.756740100000115,0.0139737412527265,1
22,1,136,420,42,-45,-1.8546873026985,-1,0.566957900000034,0.0412497000002077,0.41566980000016,0.0139737412527265,1
25,1,137,480,48,45,-1.8546873026985,-1,1.28759279999986,0.0440408999997999,0.47608530000025,0.0139737412527265,0
17,1,138,320,32,-45,-1.8546873026985,1,0.550566300000355,0.0427029999996194,0.318275800000265,0.0139737412527265,0
4,1,139,60,6,45,-1.8546873026985,-1,6.2360749999998,0.0439745000003313,0.056385599999885,0.0139737412527265,0
27,1,140,520,52,45,-1.8546873026985,1,0.542951699999776,0.0444056999999702,0.516597499999989,0.0139737412527265,1
42,1,141,820,82,-45,-1.8546873026985,-1,0.546875699999873,0.0502210999998169,0.82649020000008,0.0139737412527265,1
7,1,142,120,12,45,-1.8546873026985,1,0.610068599999977,0.0514256999999816,0.122405500000241,0.0139737412527265,1
8,1,143,140,14,-45,-1.8546873026985,-1,0.811661900000217,0.0438647999999375,0.136330400000134,0.0139737412527265,1
11,1,144,200,20,45,-1.8546873026985,1,0.683405799999946,0.0464242999996713,0.198103000000174,0.0139737412527265,1
40,1,145,780,78,-45,-1.8546873026985,1,0.71606329999986,0.0430489999998827,0.776770099999794,0.0139737412527265,0
41,1,146,800,80,45,-1.8546873026985,1,1.1191073,0.0484802999999374,0.800251099999969,0.0139737412527265,1
38,1,147,740,74,45,-1.8546873026985,1,1.14045430000033,0.0496912999997221,0.745916899999884,0.0139737412527265,1
15,1,148,280,28,45,-1.8546873026985,1,0.594913599999927,0.0405150000001413,0.276565300000129,0.0139737412527265,1
37,1,149,720,72,-45,-1.8546873026985,-1,0.598341399999754,0.0446695000000545,0.716905199999928,0.0139737412527265,1
50,1,150,980,98,-45,-1.8546873026985,-1,0.555039899999883,0.0485794000001079,0.979767199999969,0.0139737412527265,1
14,1,151,260,26,45,-1.8546873026985,1,0.598850700000185,0.0496836000002077,0.263683799999853,0.0139737412527265,1
38,1,152,740,74,-45,-1.8546873026985,1,0.527650300000005,0.0449972000001253,0.73934300000019,0.0139737412527265,0
12,1,153,220,22,45,-1.8546873026985,1,0.68755179999971,0.0496917999998914,0.222593800000141,0.0139737412527265,1
46,2,154,900,90,45,-1.8546873026985,1,0.595119300000079,0.0442156000003706,0.896806599999763,0.0139737412527265,1
9,2,155,160,16,45,-1.8546873026985,1,0.455833200000143,0.0435621803762842,0.156488219623498,0.0139737412527265,1
45,2,156,880,88,45,-1.8546873026985,1,0.471085300000141,0.0438725000003615,0.876992799999698,0.0139737412527265,1
47,2,157,920,92,-45,-1.8546873026985,-1,0.494819000000007,0.0508569999997235,0.926512300000013,0.0139737412527265,1
1,2,158,0,0,45,-1.8546873026985,1,0.915000400000281,0.0435389999997824,0.00113400000009278,0.0139737412527265,1
7,2,159,120,12,45,-1.8546873026985,1,0.49516709999989,0.0445287000002281,0.116349099999752,0.0139737412527265,1
30,2,160,580,58,45,-1.8546873026985,1,0.488288399999874,0.0504768999999214,0.581066300000202,0.0139737412527265,1
24,2,161,460,46,45,-1.8546873026985,1,0.571393100000023,0.0512982000000193,0.46549079999977,0.0139737412527265,1
50,2,162,980,98,45,-1.8546873026985,1,0.62927209999998,0.0414166999998997,0.97677640000029,0.0139737412527265,1
31,2,163,600,60,45,-1.8546873026985,1,0.546033600000101,0.0496828999998797,0.604324500000075,0.0139737412527265,1
51,2,164,1000,100,-45,-1.8546873026985,-1,0.850337700000182,0.0409522999998444,0.996766300000218,0.0139737412527265,1
18,2,165,340,34,45,-1.8546873026985,1,0.591712299999926,0.0445290000002387,0.339408699999694,0.0139737412527265,1
2,2,166,20,2,45,-1.8546873026985,1,0.846369200000026,0.0399093999999423,0.0257237999999234,0.0139737412527265,1
35,2,167,680,68,45,-1.8546873026985,1,0.655827900000077,0.0431972999999743,0.676645600000029,0.0139737412527265,1
8,2,168,140,14,45,-1.8546873026985,1,0.58381270000018,0.0464841999996679,0.138257999999951,0.0139737412527265,1
40,2,169,780,78,45,-1.8546873026985,1,0.542526299999736,0.0408306999997876,0.776814100000138,0.0139737412527265,1
23,2,170,440,44,45,-1.8546873026985,1,0.46451019999995,0.049431999999797,0.446196200000031,0.0139737412527265,1
32,2,171,620,62,45,-1.8546873026985,1,0.417002300000149,0.0494555000000219,0.621972200000073,0.0139737412527265,1
47,2,172,920,92,45,-1.8546873026985,1,0.560389400000076,0.0427376000002369,0.916719299999841,0.0139737412527265,1
43,2,173,840,84,-45,-1.8546873026985,-1,0.518344200000229,0.0492570000001251,0.840357699999913,0.0139737412527265,1
39,2,174,760,76,45,-1.8546873026985,1,0.436389999999847,0.0497138999999152,0.761747900000046,0.0139737412527265,1
48,2,175,940,94,-45,-1.8546873026985,-1,0.574044599999979,0.0508969000002253,0.943241899999975,0.0139737412527265,1
48,2,176,940,94,45,-1.8546873026985,1,0.554713600000014,0.0445245999999315,0.936681599999702,0.0139737412527265,1
37,2,177,720,72,-45,-1.8546873026985,-1,0.442938700000013,0.0404512000000068,0.716565600000195,0.0139737412527265,1
15,2,178,280,28,-45,-1.8546873026985,1,0.62219849999974,0.0445193000000472,0.277226600000176,0.0139737412527265,0
22,2,179,420,42,45,-1.8546873026985,1,1.23225490000004,0.0445507999997972,0.41909110000006,0.0139737412527265,1
43,2,180,840,84,45,-1.8546873026985,1,0.576351199999863,0.049551000000065,0.845976999999948,0.0139737412527265,1
37,2,181,720,72,45,-1.8546873026985,-1,0.598069000000123,0.04458343292481,0.717109067075398,0.0139737412527265,0
16,2,182,300,30,45,-1.8546873026985,1,0.489014899999802,0.0440966999999546,0.298928300000171,0.0139737412527265,1
5,2,183,80,8,45,-1.8546873026985,1,0.668062799999916,0.0502931999999419,0.0814053000003696,0.0139737412527265,1
12,2,184,220,22,-45,-1.8546873026985,-1,0.478521300000011,0.0407750999997916,0.216554699999961,0.0139737412527265,1
14,2,185,260,26,-45,-1.8546873026985,-1,0.532433999999739,0.0511016000000382,0.264035799999874,0.0139737412527265,1
27,2,186,520,52,45,-1.8546873026985,1,0.463258600000245,0.0425778000003447,0.517891199999667,0.0139737412527265,1
19,2,187,360,36,-45,-1.8546873026985,-1,0.621885600000041,0.0443697000000611,0.357471499999974,0.0139737412527265,1
31,2,188,600,60,-45,-1.8546873026985,1,0.512159800000063,0.0419039000003067,0.597594899999876,0.0139737412527265,0
19,2,189,360,36,-45,-1.8546873026985,1,0.578947699999844,0.0407565000000432,0.35652250000021,0.0139737412527265,0
25,2,190,480,48,45,-1.8546873026985,1,0.535770499999671,0.0434843000002729,0.476515599999857,0.0139737412527265,1
29,2,191,560,56,45,-1.8546873026985,1,0.916622700000062,0.0454558000001271,0.558006599999771,0.0139737412527265,1
26,2,192,500,50,-45,-1.8546873026985,-1,0.610603800000263,0.0444008999998005,0.496539300000222,0.0139737412527265,1
39,2,193,760,76,45,-1.8546873026985,1,0.465602900000249,0.0410436646225207,0.75746163537724,0.0139737412527265,1
20,2,194,380,38,45,-1.8546873026985,1,0.542075399999703,0.0512646000001951,0.382580500000131,0.0139737412527265,1
20,2,195,380,38,-45,-1.8546873026985,1,0.509029299999838,0.0423155999997107,0.376604200000202,0.0139737412527265,0
3,2,196,40,4,-45,-1.8546873026985,-1,0.96833209999977,0.0502844999996341,0.0535672000000886,0.0139737412527265,1
10,2,197,180,18,45,-1.8546873026985,1,0.597803399999975,0.0414131000002271,0.17660079999996,0.0139737412527265,1
38,2,198,740,74,-45,-1.8546873026985,-1,0.655446700000084,0.0449968000002627,0.739589599999817,0.0139737412527265,1
43,2,199,840,84,-45,-1.8546873026985,1,0.506937799999832,0.0467320999996446,0.838109799999984,0.0139737412527265,0
36,2,200,700,70,45,-1.8546873026985,1,0.516789199999948,0.0476423000000068,0.699437100000068,0.0139737412527265,1
33,2,201,640,64,-45,-1.8546873026985,-1,0.539678699999968,0.0496045999998387,0.642918300000019,0.0139737412527265,1
34,2,202,660,66,45,-1.8546873026985,1,0.78967909999983,0.0411899000000631,0.656807500000014,0.0139737412527265,1
15,2,203,280,28,-45,-1.8546873026985,-1,0.529508999999962,0.0497946000000411,0.2843641999998,0.0139737412527265,1
50,2,204,980,98,-45,-1.8546873026985,1,0.755626799999845,0.0430580302804628,0.976944469719456,0.0139737412527265,0
32,2,205,620,62,-45,-1.8546873026985,1,0.616452899999786,0.0455056999999215,0.618022699999983,0.0139737412527265,0
11,2,206,200,20,45,-1.8546873026985,-1,0.56183960000044,0.0494474000001901,0.204909300000054,0.0139737412527265,0
25,2,207,480,48,45,-1.8546873026985,-1,0.355002099999638,0.0455418999999893,0.479409900000064,0.0139737412527265,0
24,2,208,460,46,45,-1.8546873026985,1,0.542721899999833,0.0408938000000489,0.456117499999891,0.0139737412527265,1
29,2,209,560,56,45,-1.8546873026985,1,0.455515699999978,0.0434838999999556,0.556591900000058,0.0139737412527265,1
41,2,210,800,80,45,-1.8546873026985,1,0.550342099999853,0.0431999000002179,0.798434599999837,0.0139737412527265,1
26,2,211,500,50,45,-1.8546873026985,1,0.427395100000012,0.0484167999998135,0.500065200000336,0.0139737412527265,1
30,2,212,580,58,45,-1.8546873026985,1,0.419885400000112,0.0427178999998432,0.576808600000277,0.0139737412527265,1
23,2,213,440,44,-45,-1.8546873026985,-1,0.545847599999888,0.0415594999999485,0.436580000000049,0.0139737412527265,1
4,2,214,60,6,-45,-1.8546873026985,-1,0.926468299999669,0.0497467999998662,0.0637664000000768,0.0139737412527265,1
50,2,215,980,98,45,-1.8546873026985,1,0.817831999999726,0.044888699999774,0.977456800000255,0.0139737412527265,1
20,2,216,380,38,45,-1.8546873026985,1,0.589846699999725,0.0412747999998828,0.376632500000142,0.0139737412527265,1
45,2,217,880,88,-45,-1.8546873026985,-1,0.758857799999987,0.0430688999999802,0.878094400000009,0.0139737412527265,1
14,2,218,260,26,45,-1.8546873026985,1,0.533675799999855,0.0416442000000643,0.256654499999968,0.0139737412527265,1
3,2,219,40,4,-45,-1.8546873026985,1,1.12305610000021,0.0507458999995833,0.0421547000000828,0.0139737412527265,0
21,2,220,400,40,-45,-1.8546873026985,-1,0.523265599999831,0.0404099999996106,0.396424000000025,0.0139737412527265,1
18,2,221,340,34,-45,-1.8546873026985,1,0.582250000000386,0.0413078000001406,0.336599799999931,0.0139737412527265,0
36,2,222,700,70,-45,-1.8546873026985,-1,0.470794899999873,0.0454248999999436,0.699693199999729,0.0139737412527265,1
37,2,223,720,72,-45,-1.8546873026985,-1,0.521457600000304,0.0415545000000748,0.716818400000193,0.0139737412527265,1
12,2,224,220,22,45,-1.8546873026985,1,0.46149910000031,0.0415788999998767,0.2165715000001,0.0139737412527265,1
48,2,225,940,94,45,-1.8546873026985,1,0.588032199999816,0.0511053999998694,0.944585499999903,0.0139737412527265,1
46,2,226,900,90,45,-1.8546873026985,1,0.480143300000236,0.045949599999858,0.897733499999958,0.0139737412527265,1
34,2,227,660,66,45,-1.8546873026985,1,0.367430799999966,0.0448342658492038,0.659608134150858,0.0139737412527265,1
34,2,228,660,66,45,-1.8546873026985,1,0.481254400000125,0.0445862000001398,0.657750899999883,0.0139737412527265,1
42,2,229,820,82,45,-1.8546873026985,1,0.479155399999854,0.0451377000003959,0.819693699999789,0.0139737412527265,1
5,2,230,80,8,-45,-1.8546873026985,-1,0.666048000000046,0.0414592999995875,0.0762744000003295,0.0139737412527265,1
27,2,231,520,52,-45,-1.8546873026985,-1,0.623685900000055,0.0438895000002049,0.516722999999729,0.0139737412527265,1
17,2,232,320,32,-45,-1.8546873026985,1,0.520635800000036,0.0429881000000023,0.316505499999948,0.0139737412527265,0
36,2,233,700,70,45,-1.8546873026985,-1,0.85626000000002,0.0448613999997178,0.698725900000227,0.0139737412527265,0
49,2,234,960,96,45,-1.8546873026985,1,0.486788300000171,0.042694499999925,0.958136900000227,0.0139737412527265,1
3,2,235,40,4,45,-1.8546873026985,1,6.09418489999962,0.0400392000001375,0.0580328999999438,0.0139737412527265,1
16,2,236,300,30,-45,-1.8546873026985,1,0.891618700000436,0.0434893999999986,0.296613699999853,0.0139737412527265,0
22,2,237,420,42,-45,-1.8546873026985,-1,0.545869500000208,0.0442206000002443,0.417858499999966,0.0139737412527265,1
29,2,238,560,56,45,-1.8546873026985,1,0.531657300000006,0.0451431999999841,0.559136800000033,0.0139737412527265,1
6,2,239,100,10,45,-1.8546873026985,1,0.627031799999713,0.0441225999998096,0.0966545000001133,0.0139737412527265,1
32,2,240,620,62,45,-1.8546873026985,1,0.52695760000006,0.0503476000003502,0.622593399999914,0.0139737412527265,1
38,2,241,740,74,-45,-1.8546873026985,-1,0.478617599999779,0.0468165000002045,0.738506400000006,0.0139737412527265,1
4,2,242,60,6,45,-1.8546873026985,1,0.595749899999646,0.0502282000002197,0.0742654999999104,0.0139737412527265,1
19,2,243,360,36,-45,-1.8546873026985,1,0.89618500000006,0.0428084668847077,0.356687233115281,0.0139737412527265,0
41,2,244,800,80,-45,-1.8546873026985,-1,1.35477739999988,0.041253400000187,0.796021499999824,0.0139737412527265,1
9,2,245,160,16,-45,-1.8546873026985,1,0.719798799999808,0.0484580000002097,0.159794000000147,0.0139737412527265,0
16,2,246,300,30,-45,-1.8546873026985,1,0.851513000000068,0.0483300000000781,0.299807800000053,0.0139737412527265,0
8,2,247,140,14,45,-1.8546873026985,-1,0.588702599999579,0.0495246000000407,0.145740200000091,0.0139737412527265,0
24,2,248,460,46,-45,-1.8546873026985,-1,0.572020300000077,0.0441571999999724,0.455596400000104,0.0139737412527265,1
45,2,249,880,88,45,-1.8546873026985,1,0.485905499999717,0.0445018000000346,0.876902999999857,0.0139737412527265,1
46,2,250,900,90,-45,-1.8546873026985,1,0.562899900000048,0.0440159646227585,0.897491035377243,0.0139737412527265,0
5,2,251,80,8,-45,-1.8546873026985,-1,0.980076300000292,0.0448811999999634,0.078896800000166,0.0139737412527265,1
28,2,252,540,54,-45,-1.8546873026985,-1,0.605867399999624,0.050060399999893,0.54415280000012,0.0139737412527265,1
28,2,253,540,54,-45,-1.8546873026985,1,0.605624799999987,0.0512808000003133,0.54310439999972,0.0139737412527265,0
47,2,254,920,92,-45,-1.8546873026985,-1,1.26713250000012,0.0403374000002259,0.916788099999849,0.0139737412527265,1
2,2,255,20,2,-45,-1.8546873026985,-1,0.985334100000273,0.0399400000001151,0.0309593000001769,0.0139737412527265,1
6,2,256,100,10,45,-1.8546873026985,1,0.507740900000044,0.0486045000002377,0.0996079999999893,0.0139737412527265,1
30,2,257,580,58,45,-1.8546873026985,-1,1.41381210000009,0.0500148000000991,0.583976099999745,0.0139737412527265,0
44,2,258,860,86,45,-1.8546873026985,1,0.395653399999901,0.0499217999999928,0.866596500000014,0.0139737412527265,1
44,2,259,860,86,-45,-1.8546873026985,1,0.603788999999779,0.0501850999999078,0.865915200000018,0.0139737412527265,0
33,2,260,640,64,-45,-1.8546873026985,1,0.665772800000013,0.0408634000000347,0.636711999999989,0.0139737412527265,0
25,2,261,480,48,45,-1.8546873026985,1,1.28309720000016,0.0452925999998115,0.479632600000059,0.0139737412527265,1
22,2,262,420,42,45,-1.8546873026985,-1,0.577853599999798,0.0446013597161254,0.417083040283615,0.0139737412527265,0
33,2,263,640,64,45,-1.8546873026985,1,0.541303399999833,0.0495484000002762,0.640798599999926,0.0139737412527265,1
13,2,264,240,24,45,-1.8546873026985,1,0.793961400000171,0.0497491999999511,0.244282999999996,0.0139737412527265,1
26,2,265,500,50,-45,-1.8546873026985,1,0.567380799999682,0.0498026999998729,0.502464799999871,0.0139737412527265,0
41,2,266,800,80,-45,-1.8546873026985,-1,0.562451800000417,0.0457203000000845,0.799702899999829,0.0139737412527265,1
38,2,267,740,74,-45,-1.8546873026985,1,0.886499000000185,0.0405398000002606,0.736659599999712,0.0139737412527265,0
23,2,268,440,44,-45,-1.8546873026985,-1,0.588296399999763,0.0459196000001612,0.437647100000049,0.0139737412527265,1
4,2,269,60,6,45,-1.8546873026985,1,0.650306600000022,0.0451145000001816,0.056703700000071,0.0139737412527265,1
11,2,270,200,20,45,-1.8546873026985,1,1.09064639999997,0.0498395999998138,0.203535300000112,0.0139737412527265,1
27,2,271,520,52,45,-1.8546873026985,1,0.961256699999922,0.0417217999997774,0.516544600000088,0.0139737412527265,1
14,2,272,260,26,45,-1.8546873026985,1,0.882668600000216,0.044513199999983,0.256531799999721,0.0139737412527265,1
35,2,273,680,68,-45,-1.8546873026985,1,0.556907799999863,0.0454709000000548,0.677763400000003,0.0139737412527265,0
13,2,274,240,24,45,-1.8546873026985,-1,1.1719277000002,0.0449318999999377,0.239275700000235,0.0139737412527265,0
18,2,275,340,34,-45,-1.8546873026985,-1,0.678093699999863,0.0412755000002107,0.336507800000163,0.0139737412527265,1
42,2,276,820,82,45,-1.8546873026985,1,0.518641699999989,0.0404457999998158,0.816804700000375,0.0139737412527265,1
7,2,277,120,12,-45,-1.8546873026985,1,0.719111899999916,0.0514168999998219,0.125234600000113,0.0139737412527265,0
6,2,278,100,10,-45,-1.8546873026985,-1,0.610882500000116,0.0447712999998657,0.0964469000000463,0.0139737412527265,1
49,2,279,960,96,-45,-1.8546873026985,1,0.627242099999876,0.0452494000001025,0.959230599999955,0.0139737412527265,0
8,2,280,140,14,-45,-1.8546873026985,-1,0.636123200000384,0.0434744999997747,0.136278400000265,0.0139737412527265,1
51,2,281,1000,100,45,-1.8546873026985,1,0.49870060000012,0.040780000000268,0.996731700000055,0.0139737412527265,1
49,2,282,960,96,-45,-1.8546873026985,-1,0.503764300000057,0.0426683999999113,0.957440399999996,0.0139737412527265,1
39,2,283,760,76,45,-1.8546873026985,1,0.500026000000162,0.0495398000002751,0.761991699999726,0.0139737412527265,1
15,2,284,280,28,-45,-1.8546873026985,-1,0.56168260000004,0.0416936999999962,0.276736799999981,0.0139737412527265,1
28,2,285,540,54,45,-1.8546873026985,1,6.09946000000036,0.048517900000661,0.539918499999658,0.0139737412527265,1
10,2,286,180,18,45,-1.8546873026985,1,1.96237810000002,0.0491857000006348,0.180554999999913,0.0139737412527265,1
11,2,287,200,20,45,-1.8546873026985,1,0.432086899999376,0.0497832999999446,0.205932700000631,0.0139737412527265,1
40,2,288,780,78,-45,-1.8546873026985,-1,0.567710899999838,0.0452838000001066,0.778727599999911,0.0139737412527265,1
17,2,289,320,32,-45,-1.8546873026985,-1,0.499254199999996,0.0452177999995911,0.319538499999908,0.0139737412527265,1
40,2,290,780,78,-45,-1.8546873026985,-1,0.475918000000092,0.0424431999999797,0.777704199999789,0.0139737412527265,1
21,2,291,400,40,-45,-1.8546873026985,-1,0.687497899999471,0.0484025000005204,0.399697799999558,0.0139737412527265,1
1,2,292,0,0,-45,-1.8546873026985,-1,0.586455399999977,0.0485316000003877,0.00497980000000098,0.0139737412527265,1
31,2,293,600,60,45,-1.8546873026985,1,0.556117999999515,0.0449416999999812,0.598705500000506,0.0139737412527265,1
21,2,294,400,40,-45,-1.8546873026985,1,0.762623900000108,0.0414866000000984,0.396108900000399,0.0139737412527265,0
35,2,295,680,68,45,-1.8546873026985,1,0.530093600000328,0.0414858000003733,0.676643199999489,0.0139737412527265,1
17,2,296,320,32,-45,-1.8546873026985,-1,0.443456899999546,0.0496186999998827,0.322757699999784,0.0139737412527265,1
13,2,297,240,24,-45,-1.8546873026985,-1,0.514969299999393,0.0452972000002774,0.239375000000109,0.0139737412527265,1
10,2,298,180,18,-45,-1.8546873026985,-1,0.613891199999671,0.0409146658494137,0.176818034150529,0.0139737412527265,1
9,2,299,160,16,45,-1.8546873026985,-1,0.64951149999979,0.0419566000000486,0.156707000000097,0.0139737412527265,0
42,2,300,820,82,45,-1.8546873026985,-1,3.02942899999925,0.0415993999995408,0.816891299999952,0.0139737412527265,0
2,2,301,20,2,45,-1.8546873026985,1,1.30401770000026,0.0402782999999545,0.0156504000005953,0.0139737412527265,1
1,2,302,0,0,-45,-1.8546873026985,-1,0.921195800000532,0.0500928999999815,0.0206673000002411,0.0139737412527265,1
51,2,303,1000,100,45,-1.8546873026985,1,10.9931763999994,0.0416355999996085,0.996827599999961,0.0139737412527265,1
44,2,304,860,86,45,-1.8546873026985,1,0.724486199999774,0.0478739000000132,0.859508399999868,0.0139737412527265,1
7,2,305,120,12,45,-1.8546873026985,-1,0.544458200000008,0.0428325000002587,0.116527000000133,0.0139737412527265,0
12,2,306,220,22,45,-1.8546873026985,1,0.613440699999956,0.0400011000001541,0.226429500000449,0.0139737412527265,1
40,3,307,780,78,45,-1.8546873026985,1,0.46787089999998,0.0506950999997571,0.782408500000201,0.0139737412527265,1
41,3,308,800,80,-45,-1.8546873026985,1,0.602140199999667,0.0497254000001703,0.80356859999938,0.0139737412527265,0
31,3,309,600,60,45,-1.8546873026985,1,0.411994799999775,0.0445003000004363,0.599506699999438,0.0139737412527265,1
48,3,310,940,94,-45,-1.8546873026985,1,0.490503499999249,0.0443392973566006,0.937102402643177,0.0139737412527265,0
18,3,311,340,34,45,-1.8546873026985,1,0.403513800000837,0.0435115000000224,0.336638100000528,0.0139737412527265,1
34,3,312,660,66,45,-1.8546873026985,1,0.546407400000135,0.0443577999994886,0.656818899999962,0.0139737412527265,1
10,3,313,180,18,45,-1.8546873026985,1,0.502058999999463,0.0413706999997885,0.176779000000352,0.0139737412527265,1
37,3,314,720,72,-45,-1.8546873026985,-1,0.58593270000074,0.0410670999999638,0.716700800000581,0.0139737412527265,1
44,3,315,860,86,45,-1.8546873026985,1,0.455855100000008,0.0453726280193223,0.858508271981009,0.0139737412527265,1
35,3,316,680,68,-45,-1.8546873026985,1,0.481642900000224,0.0411491000004389,0.676812499999869,0.0139737412527265,0
22,3,317,420,42,45,-1.8546873026985,1,0.499193999999989,0.0440614999997706,0.416729100000339,0.0139737412527265,1
5,3,318,80,8,-45,-1.8546873026985,1,0.601597599999877,0.0417268999999578,0.0762231999997312,0.0139737412527265,0
13,3,319,240,24,45,-1.8546873026985,1,0.503893899999639,0.0500686999994286,0.245598600000449,0.0139737412527265,1
45,3,320,880,88,-45,-1.8546873026985,-1,0.473006299999724,0.0416477292455966,0.877176870754738,0.0139737412527265,1
2,3,321,20,2,45,-1.8546873026985,1,0.583369400000265,0.0503958999997849,0.0377275000000736,0.0139737412527265,1
49,3,322,960,96,45,-1.8546873026985,-1,0.674531999999999,0.0455277999999453,0.959790500000054,0.0139737412527265,0
11,3,323,200,20,45,-1.8546873026985,1,0.735483000000386,0.0437157999995179,0.196700500000588,0.0139737412527265,1
5,3,324,80,8,-45,-1.8546873026985,-1,0.502335700000003,0.0400287999991633,0.0979188000001159,0.0139737412527265,1
26,3,325,500,50,45,-1.8546873026985,1,0.501508600000307,0.0415699000004679,0.496631600000001,0.0139737412527265,1
15,3,326,280,28,-45,-1.8546873026985,-1,0.554979900000035,0.0452585000002728,0.279495799999495,0.0139737412527265,1
43,3,327,840,84,45,-1.8546873026985,1,0.537351500000113,0.0400571999998647,0.846569600000294,0.0139737412527265,1
46,3,328,900,90,-45,-1.8546873026985,-1,0.531619100000171,0.0512914999999339,0.905374799999663,0.0139737412527265,1
7,3,329,120,12,-45,-1.8546873026985,-1,0.759501300000011,0.0481168999995134,0.119953600000372,0.0139737412527265,1
8,3,330,140,14,-45,-1.8546873026985,1,0.450100199999724,0.0494775999995909,0.140507099999923,0.0139737412527265,0
39,3,331,760,76,-45,-1.8546873026985,-1,0.620587399999749,0.0448721000002479,0.758480800000143,0.0139737412527265,1
25,3,332,480,48,45,-1.8546873026985,-1,0.986694799999896,0.0509283999999752,0.482235299999957,0.0139737412527265,0
31,3,333,600,60,-45,-1.8546873026985,-1,0.46625529999983,0.0493747999998959,0.60445559999971,0.0139737412527265,1
35,3,334,680,68,45,-1.8546873026985,1,0.526558200000181,0.0427943218865039,0.678580178113407,0.0139737412527265,1
19,3,335,360,36,-45,-1.8546873026985,-1,0.634655099999691,0.0456301000003805,0.359581099999559,0.0139737412527265,1
6,3,336,100,10,45,-1.8546873026985,1,0.534558800000013,0.0408546000007846,0.0964937999997346,0.0139737412527265,1
23,3,337,440,44,-45,-1.8546873026985,1,0.787089800000103,0.0404759000002741,0.436646899999687,0.0139737412527265,0
38,3,338,740,74,45,-1.8546873026985,1,0.531539499999781,0.0438580999998521,0.736870500000805,0.0139737412527265,1
9,3,339,160,16,45,-1.8546873026985,1,0.525358799999594,0.0496499999999287,0.16080779999993,0.0139737412527265,1
50,3,340,980,98,45,-1.8546873026985,-1,2.61022260000027,0.0429645000003802,0.978809299999739,0.0139737412527265,0
42,3,341,820,82,45,-1.8546873026985,1,1.3564652999994,0.0478425999999672,0.819383000000016,0.0139737412527265,1
45,3,342,880,88,-45,-1.8546873026985,-1,0.51107839999986,0.0492367999995622,0.879297899999983,0.0139737412527265,1
26,3,343,500,50,-45,-1.8546873026985,-1,0.46778600000016,0.04351989999941,0.496661099999983,0.0139737412527265,1
1,3,344,0,0,45,-1.8546873026985,-1,0.76940519999971,0.0400156000005154,0.0227699999995821,0.0139737412527265,0
46,3,345,900,90,45,-1.8546873026985,1,0.563554199999999,0.04283630000009,0.897464800000307,0.0139737412527265,1
20,3,346,380,38,45,-1.8546873026985,1,0.587354599999344,0.0440027000004193,0.376715299999887,0.0139737412527265,1
37,3,347,720,72,45,-1.8546873026985,1,0.535823500000333,0.0429893999998967,0.71675469999991,0.0139737412527265,1
34,3,348,660,66,-45,-1.8546873026985,-1,0.501494800000728,0.0415972000000693,0.656814799999665,0.0139737412527265,1
21,3,349,400,40,-45,-1.8546873026985,-1,1.10978500000056,0.0451536000000488,0.396971299999677,0.0139737412527265,1
47,3,350,920,92,-45,-1.8546873026985,1,0.497214399999393,0.0421756999994614,0.916725699999915,0.0139737412527265,0
16,3,351,300,30,45,-1.8546873026985,1,0.531386599999678,0.0486627999998746,0.300122900000133,0.0139737412527265,1
15,3,352,280,28,45,-1.8546873026985,-1,0.597925300000497,0.0492848000003505,0.280483199999253,0.0139737412527265,0
31,3,353,600,60,-45,-1.8546873026985,1,0.535164500000064,0.0485702000005404,0.599920300000122,0.0139737412527265,0
8,3,354,140,14,-45,-1.8546873026985,1,1.22596780000003,0.0446959999999308,0.137622299999748,0.0139737412527265,0
14,3,355,260,26,45,-1.8546873026985,1,0.749995699999999,0.0473603999998886,0.25892070000009,0.0139737412527265,1
16,3,356,300,30,45,-1.8546873026985,1,0.813345800000207,0.0422826000003624,0.296467299999676,0.0139737412527265,1
32,3,357,620,62,45,-1.8546873026985,1,0.446380000000318,0.0494877000000997,0.62410699999964,0.0139737412527265,1
13,3,358,240,24,-45,-1.8546873026985,-1,0.448123999999552,0.0477655999993658,0.239312900000186,0.0139737412527265,1
36,3,359,700,70,-45,-1.8546873026985,-1,0.667048899999827,0.0437861000000339,0.696785000000091,0.0139737412527265,1
24,3,360,460,46,45,-1.8546873026985,1,0.56725969999934,0.0454000999998243,0.459466199999952,0.0139737412527265,1
36,3,361,700,70,45,-1.8546873026985,1,1.9104653000004,0.0455431000000317,0.699539600000207,0.0139737412527265,1
16,3,362,300,30,45,-1.8546873026985,1,0.440423900000496,0.0449498999996649,0.298942400000669,0.0139737412527265,1
24,3,363,460,46,-45,-1.8546873026985,-1,1.11816720000024,0.0411314000002676,0.45662319999974,0.0139737412527265,1
32,3,364,620,62,-45,-1.8546873026985,-1,0.667086599999493,0.0438333000001876,0.616661799999747,0.0139737412527265,1
48,3,365,940,94,45,-1.8546873026985,1,0.485207400000036,0.0452799621698432,0.941376737830069,0.0139737412527265,1
11,3,366,200,20,45,-1.8546873026985,1,0.592973900000288,0.042022800000268,0.197124700000131,0.0139737412527265,1
2,3,367,20,2,45,-1.8546873026985,1,0.622135499999786,0.0399270999996588,0.042282399999749,0.0139737412527265,1
35,3,368,680,68,-45,-1.8546873026985,-1,0.497083799999928,0.0423522000000958,0.676572899999883,0.0139737412527265,1
30,3,369,580,58,45,-1.8546873026985,-1,0.784098000000085,0.0450677000008,0.578910199999882,0.0139737412527265,0
21,3,370,400,40,45,-1.8546873026985,1,0.471236600000339,0.0425899000001664,0.398093400000107,0.0139737412527265,1
51,3,371,1000,100,45,-1.8546873026985,1,0.509020299999975,0.0438839999997072,0.999225399999887,0.0139737412527265,1
34,3,372,660,66,45,-1.8546873026985,1,0.418426500000351,0.0442876000006436,0.656793799999832,0.0139737412527265,1
44,3,373,860,86,45,-1.8546873026985,1,0.461872400000175,0.0500402999996368,0.864196200000151,0.0139737412527265,1
14,3,374,260,26,-45,-1.8546873026985,1,0.663330200000019,0.0510660999998436,0.261531899999682,0.0139737412527265,0
19,3,375,360,36,45,-1.8546873026985,1,0.512410900000759,0.0495117999998911,0.365690499999801,0.0139737412527265,1
42,3,376,820,82,-45,-1.8546873026985,-1,0.843465200000537,0.0486425999997664,0.819733900000756,0.0139737412527265,1
3,3,377,40,4,-45,-1.8546873026985,-1,3.18501060000017,0.043666999999914,0.0356228000000556,0.0139737412527265,1
19,3,378,360,36,45,-1.8546873026985,1,0.567422999999508,0.0485798999998224,0.35957899999994,0.0139737412527265,1
29,3,379,560,56,45,-1.8546873026985,1,1.80661680000048,0.0490138390568973,0.560124900000119,0.0139737412527265,1
50,3,380,980,98,-45,-1.8546873026985,-1,0.689271100000042,0.045459099999789,0.977431100000103,0.0139737412527265,1
30,3,381,580,58,-45,-1.8546873026985,-1,1.07058599999982,0.0454797000002145,0.579542399999809,0.0139737412527265,1
9,3,382,160,16,45,-1.8546873026985,1,0.509431699999368,0.048768999999993,0.161741500000062,0.0139737412527265,1
29,3,383,560,56,45,-1.8546873026985,1,0.472626499999933,0.0420956999996633,0.556948500000544,0.0139737412527265,1
18,3,384,340,34,45,-1.8546873026985,1,0.509482100000241,0.0472646999996869,0.338901399999486,0.0139737412527265,1
29,3,385,560,56,45,-1.8546873026985,1,0.505080599999928,0.0418788999995741,0.556622000000061,0.0139737412527265,1
14,3,386,260,26,-45,-1.8546873026985,1,0.625034300000152,0.0448779999996987,0.258273700000245,0.0139737412527265,0
23,3,387,440,44,-45,-1.8546873026985,1,0.554726800000026,0.0458165000000008,0.439502400000492,0.0139737412527265,0
39,3,388,760,76,45,-1.8546873026985,1,0.578051800000139,0.0496800000000803,0.764190400000189,0.0139737412527265,1
47,3,389,920,92,45,-1.8546873026985,1,0.592681000000084,0.042418699999871,0.917148499999712,0.0139737412527265,1
39,3,390,760,76,-45,-1.8546873026985,1,1.13772579999932,0.0412805000005392,0.756614899999477,0.0139737412527265,0
41,3,391,800,80,-45,-1.8546873026985,1,0.50496320000002,0.0420463999998901,0.796599100000094,0.0139737412527265,0
18,3,392,340,34,45,-1.8546873026985,1,0.73512589999973,0.0451373000005333,0.339621399999487,0.0139737412527265,1
38,3,393,740,74,45,-1.8546873026985,1,0.678214699999444,0.0502502999997887,0.743377199999486,0.0139737412527265,1
22,3,394,420,42,45,-1.8546873026985,1,0.563712299999679,0.0512454999998226,0.424842999999782,0.0139737412527265,1
37,3,395,720,72,-45,-1.8546873026985,-1,0.978840700000546,0.0454538999993019,0.719885900000008,0.0139737412527265,1
3,3,396,40,4,45,-1.8546873026985,-1,2.82779380000011,0.0450776999996378,0.0388081000000966,0.0139737412527265,0
10,3,397,180,18,45,-1.8546873026985,1,0.72278069999993,0.043498100000761,0.17786519999936,0.0139737412527265,1
33,3,398,640,64,-45,-1.8546873026985,-1,0.515040900000713,0.0457060999997339,0.63916430000063,0.0139737412527265,1
33,3,399,640,64,45,-1.8546873026985,1,0.553921199999422,0.0409812999996575,0.636685200000102,0.0139737412527265,1
43,3,400,840,84,45,-1.8546873026985,1,0.501103300000068,0.049440499999946,0.841533300000265,0.0139737412527265,1
22,3,401,420,42,45,-1.8546873026985,-1,0.494967200000247,0.0455033999996886,0.419636399999945,0.0139737412527265,0
12,3,402,220,22,-45,-1.8546873026985,-1,0.60298050000074,0.0429752999998527,0.217909500000133,0.0139737412527265,1
8,3,403,140,14,-45,-1.8546873026985,-1,1.09582500000033,0.0462908999998035,0.137811599999623,0.0139737412527265,1
10,3,404,180,18,45,-1.8546873026985,1,0.547668500000327,0.0439912000001641,0.176309399999809,0.0139737412527265,1
25,3,405,480,48,-45,-1.8546873026985,1,0.631317700000182,0.0437293999993926,0.476588300000003,0.0139737412527265,0
23,3,406,440,44,-45,-1.8546873026985,1,0.671691499999724,0.0429304999997839,0.437752400000136,0.0139737412527265,0
12,3,407,220,22,45,-1.8546873026985,1,0.797886199999994,0.0418832000004841,0.216293599999517,0.0139737412527265,1
2,3,408,20,2,45,-1.8546873026985,1,0.818360600000233,0.0399317000001247,0.0377249000002848,0.0139737412527265,1
5,3,409,80,8,-45,-1.8546873026985,1,2.32896600000004,0.042707500000688,0.0762594999996509,0.0139737412527265,0
7,3,410,120,12,-45,-1.8546873026985,1,0.782470299999659,0.043555600000218,0.117906399999811,0.0139737412527265,0
6,3,411,100,10,45,-1.8546873026985,1,0.755710000000363,0.0439019000004919,0.0964690000000701,0.0139737412527265,1
36,3,412,700,70,45,-1.8546873026985,1,0.764236999999412,0.0501008999999613,0.705273000000489,0.0139737412527265,1
47,3,413,920,92,45,-1.8546873026985,1,1.48684839999987,0.042899000000034,0.917847100000472,0.0139737412527265,1
40,3,414,780,78,45,-1.8546873026985,1,0.544574599999578,0.0476348000001963,0.783795499999542,0.0139737412527265,1
44,3,415,860,86,45,-1.8546873026985,1,0.445347099999708,0.0416826000000583,0.856912000000193,0.0139737412527265,1
9,3,416,160,16,45,-1.8546873026985,1,0.923224699999992,0.0408737999996447,0.156246400000782,0.0139737412527265,1
1,3,417,0,0,-45,-1.8546873026985,-1,1.24083840000003,0.0399411999997028,0.0149632000002384,0.0139737412527265,1
4,3,418,60,6,-45,-1.8546873026985,1,0.910193900000195,0.0416556000000128,0.0561109000000215,0.0139737412527265,0
51,3,419,1000,100,-45,-1.8546873026985,-1,0.559949799999231,0.0508960999995907,1.00520059999963,0.0139737412527265,1
32,3,420,620,62,-45,-1.8546873026985,-1,1.29447940000045,0.0409087000007275,0.61658449999959,0.0139737412527265,1
17,3,421,320,32,45,-1.8546873026985,1,0.681822100000318,0.0419131000007837,0.316366999999445,0.0139737412527265,1
43,3,422,840,84,-45,-1.8546873026985,-1,0.510833999999704,0.0437727999997151,0.8370046,0.0139737412527265,1
15,3,423,280,28,-45,-1.8546873026985,1,0.51068000000032,0.0431902000000264,0.278158999999505,0.0139737412527265,0
17,3,424,320,32,45,-1.8546873026985,-1,0.660878900000171,0.0444959999995262,0.318810900000244,0.0139737412527265,0
41,3,425,800,80,-45,-1.8546873026985,1,0.743297699999857,0.0434837000002517,0.796956000000137,0.0139737412527265,0
33,3,426,640,64,45,-1.8546873026985,1,0.614738700000089,0.0432200658488,0.638085434150526,0.0139737412527265,1
27,3,427,520,52,45,-1.8546873026985,1,0.528876600000331,0.0497779999996055,0.524958599999991,0.0139737412527265,1
46,3,428,900,90,45,-1.8546873026985,1,0.862377899999956,0.0456788000001325,0.899538899999243,0.0139737412527265,1
48,3,429,940,94,45,-1.8546873026985,1,0.574830499999734,0.0406363000001875,0.936771199999384,0.0139737412527265,1
28,3,430,540,54,45,-1.8546873026985,1,0.542612899999767,0.0405662000002849,0.536553199999616,0.0139737412527265,1
30,3,431,580,58,45,-1.8546873026985,1,0.511513299999933,0.0455743000002258,0.578513599999496,0.0139737412527265,1
13,3,432,240,24,-45,-1.8546873026985,-1,0.538265999999567,0.0419670999999653,0.235733099999379,0.0139737412527265,1
50,3,433,980,98,-45,-1.8546873026985,-1,0.869649799999934,0.0411379999995916,0.977027599999928,0.0139737412527265,1
4,3,434,60,6,-45,-1.8546873026985,1,0.814047799999571,0.0420414999998684,0.0560275000007096,0.0139737412527265,0
51,3,435,1000,100,-45,-1.8546873026985,-1,0.47932419999961,0.0435423999997511,0.996861800000261,0.0139737412527265,1
20,3,436,380,38,45,-1.8546873026985,1,0.491114400000697,0.051226300000053,0.385484700000234,0.0139737412527265,1
11,3,437,200,20,45,-1.8546873026985,1,0.950187299999925,0.049181100000169,0.200336999999308,0.0139737412527265,1
42,3,438,820,82,-45,-1.8546873026985,-1,0.660071599999355,0.0419478987732873,0.81805130122666,0.0139737412527265,1
40,3,439,780,78,45,-1.8546873026985,1,0.864393400000154,0.0496323999996093,0.781874799999969,0.0139737412527265,1
49,3,440,960,96,-45,-1.8546873026985,1,0.565644300000713,0.0446805999999924,0.957533400000102,0.0139737412527265,0
49,3,441,960,96,-45,-1.8546873026985,-1,0.53061389999948,0.0455405000002429,0.959741499999836,0.0139737412527265,1
12,3,442,220,22,45,-1.8546873026985,1,0.582880500000101,0.0454145000003336,0.219605000000229,0.0139737412527265,1
45,3,443,880,88,45,-1.8546873026985,1,0.499090899999828,0.0458864000001995,0.879045200000292,0.0139737412527265,1
20,3,444,380,38,-45,-1.8546873026985,-1,3.03792129999965,0.0494085000000268,0.384604599999875,0.0139737412527265,1
25,3,445,480,48,45,-1.8546873026985,1,0.77778920000037,0.0491875000006985,0.485906399999294,0.0139737412527265,1
1,3,446,0,0,45,-1.8546873026985,1,0.757812600000761,0.0403744000004735,0.00134809999963181,0.0139737412527265,1
27,3,447,520,52,-45,-1.8546873026985,1,0.54199620000054,0.0447899999999208,0.517104300000028,0.0139737412527265,0
21,3,448,400,40,-45,-1.8546873026985,1,0.523094000000128,0.0507856000003812,0.402075500000137,0.0139737412527265,0
6,3,449,100,10,-45,-1.8546873026985,1,0.534800099999302,0.050592304906786,0.102732699999251,0.0139737412527265,0
17,3,450,320,32,45,-1.8546873026985,1,0.675486600000113,0.045038499999464,0.319496200000685,0.0139737412527265,1
27,3,451,520,52,45,-1.8546873026985,-1,0.52929370000038,0.0514433999996982,0.522780100000091,0.0139737412527265,0
7,3,452,120,12,45,-1.8546873026985,1,1.1366466999998,0.0493030000006911,0.126024099999995,0.0139737412527265,1
3,3,453,40,4,45,-1.8546873026985,-1,0.621395299999676,0.0400149999995847,0.0583359000002019,0.0139737412527265,0
24,3,454,460,46,-45,-1.8546873026985,-1,0.574445399999604,0.0408481999993455,0.456583799999862,0.0139737412527265,1
28,3,455,540,54,45,-1.8546873026985,1,0.494390099999691,0.0412589999996271,0.536523800000396,0.0139737412527265,1
38,3,456,740,74,45,-1.8546873026985,1,0.488461500000085,0.0494822999999087,0.741863100000046,0.0139737412527265,1
26,3,457,500,50,45,-1.8546873026985,1,0.482219799999257,0.04396319999978,0.497618400000647,0.0139737412527265,1
28,3,458,540,54,-45,-1.8546873026985,-1,0.561326200000622,0.0494540999998208,0.541506100000333,0.0139737412527265,1
4,3,459,60,6,45,-1.8546873026985,-1,0.866680000000088,0.0488844999999856,0.0604533000005176,0.0139737412527265,0
16,4,460,300,30,45,-1.8546873026985,1,0.494191300000239,0.040812530472067,0.297073369528334,0.0139737412527265,1
9,4,461,160,16,45,-1.8546873026985,1,0.407371199999943,0.044058500000574,0.156357199999547,0.0139737412527265,1
46,4,462,900,90,-45,-1.8546873026985,-1,0.367111900000054,0.045549999999821,0.899321200000486,0.0139737412527265,1
41,4,463,800,80,-45,-1.8546873026985,1,0.435171899999659,0.0453656999998202,0.799774699999944,0.0139737412527265,0
40,4,464,780,78,-45,-1.8546873026985,1,0.865790100000595,0.0493932999997924,0.780427599999712,0.0139737412527265,0
10,4,465,180,18,-45,-1.8546873026985,-1,0.434655100000782,0.0442224999997052,0.176807700000609,0.0139737412527265,1
28,4,466,540,54,-45,-1.8546873026985,1,0.732467999999244,0.0488662061325158,0.546382800000174,0.0139737412527265,0
27,4,467,520,52,45,-1.8546873026985,1,0.466015199999674,0.0410934999999881,0.516815900000438,0.0139737412527265,1
49,4,468,960,96,-45,-1.8546873026985,1,0.610571000000164,0.0466390000001411,0.958601799999997,0.0139737412527265,0
7,4,469,120,12,-45,-1.8546873026985,-1,0.520203600000059,0.0500018000002456,0.133763800000452,0.0139737412527265,1
29,4,470,560,56,-45,-1.8546873026985,-1,1.00142010000036,0.0414244000003237,0.556818199999725,0.0139737412527265,1
48,4,471,940,94,-45,-1.8546873026985,1,3.55891040000006,0.0464806999998473,0.938500399999612,0.0139737412527265,0
10,4,472,180,18,-45,-1.8546873026985,1,0.590699100000165,0.0475160999994841,0.178050600000461,0.0139737412527265,0
32,4,473,620,62,-45,-1.8546873026985,-1,0.543499500000507,0.0509025999999722,0.621275800000149,0.0139737412527265,1
44,4,474,860,86,-45,-1.8546873026985,1,0.473377700000128,0.0452745000002324,0.857170500000393,0.0139737412527265,0
5,4,475,80,8,-45,-1.8546873026985,-1,0.480412599999909,0.0399883000000045,0.0873967999996239,0.0139737412527265,1
2,4,476,20,2,-45,-1.8546873026985,1,0.700673100000131,0.0412188000000242,0.0417984000005163,0.0139737412527265,0
5,4,477,80,8,-45,-1.8546873026985,-1,0.474276500000087,0.0413309999994453,0.0762422000007064,0.0139737412527265,1
31,4,478,600,60,-45,-1.8546873026985,-1,0.459311399999933,0.0458146999999371,0.599022599999444,0.0139737412527265,1
40,4,479,780,78,-45,-1.8546873026985,1,0.510231700000077,0.0405253999997512,0.777017499999602,0.0139737412527265,0
48,4,480,940,94,45,-1.8546873026985,1,0.519431099999565,0.0450488999995287,0.938989500000389,0.0139737412527265,1
24,4,481,460,46,-45,-1.8546873026985,-1,0.437522200000785,0.0400437999996939,0.466406399999869,0.0139737412527265,1
50,4,482,980,98,-45,-1.8546873026985,-1,0.58042099999966,0.042907600000035,0.976695099999233,0.0139737412527265,1
26,4,483,500,50,45,-1.8546873026985,-1,2.51466190000065,0.0512532000002466,0.505913300000429,0.0139737412527265,0
18,4,484,340,34,45,-1.8546873026985,1,0.499447999999575,0.0434049000004961,0.337147399999594,0.0139737412527265,1
9,4,485,160,16,45,-1.8546873026985,1,0.518439499999658,0.0431715950935541,0.15852120490672,0.0139737412527265,1
37,4,486,720,72,45,-1.8546873026985,1,1.1330224000003,0.0502471999998306,0.720802599999843,0.0139737412527265,1
34,4,487,660,66,-45,-1.8546873026985,-1,0.678051800000503,0.0510289999992892,0.662784500000271,0.0139737412527265,1
31,4,488,600,60,-45,-1.8546873026985,1,0.866945800000394,0.0495080000000598,0.60322350000024,0.0139737412527265,0
14,4,489,260,26,45,-1.8546873026985,1,0.501576200000272,0.0416607000006479,0.256702099999529,0.0139737412527265,1
14,4,490,260,26,45,-1.8546873026985,1,0.578093699999954,0.044798364622693,0.256986835376665,0.0139737412527265,1
11,4,491,200,20,45,-1.8546873026985,1,0.634423999999854,0.0473174999997354,0.198551299999963,0.0139737412527265,1
14,4,492,260,26,-45,-1.8546873026985,-1,0.615031099999214,0.0506851000000097,0.262532799999462,0.0139737412527265,1
47,4,493,920,92,-45,-1.8546873026985,1,0.674278500000582,0.049477300000035,0.924286200000097,0.0139737412527265,0
13,4,494,240,24,-45,-1.8546873026985,-1,0.632723100000476,0.0424931999996261,0.23649850000038,0.0139737412527265,1
33,4,495,640,64,45,-1.8546873026985,-1,0.804216399999859,0.0448109999997541,0.639218799999981,0.0139737412527265,0
4,4,496,60,6,45,-1.8546873026985,1,0.635908799999925,0.0400149999995847,0.0761081999999078,0.0139737412527265,1
22,4,497,420,42,45,-1.8546873026985,1,0.596786000000066,0.0422655000002123,0.416737800000192,0.0139737412527265,1
41,4,498,800,80,45,-1.8546873026985,1,0.694777200000317,0.0443362999994861,0.797020900000462,0.0139737412527265,1
23,4,499,440,44,-45,-1.8546873026985,-1,0.544052199999896,0.0431994999999006,0.436642900000152,0.0139737412527265,1
50,4,500,980,98,45,-1.8546873026985,1,0.534734700000627,0.0495946999999433,0.983593400000245,0.0139737412527265,1
36,4,501,700,70,-45,-1.8546873026985,1,0.717842299999575,0.0417864999999438,0.6968954999993,0.0139737412527265,0
3,4,502,40,4,45,-1.8546873026985,1,0.632803300000887,0.0399631000000227,0.0474473000003854,0.0139737412527265,1
13,4,503,240,24,-45,-1.8546873026985,-1,0.499467300000106,0.045421200000419,0.238948700000037,0.0139737412527265,1
28,4,504,540,54,-45,-1.8546873026985,1,0.615499100000306,0.0456756000003224,0.538848199999848,0.0139737412527265,0
43,4,505,840,84,-45,-1.8546873026985,1,0.750010900000234,0.0440495304719661,0.837872669528224,0.0139737412527265,0
20,4,506,380,38,-45,-1.8546873026985,1,0.518826900000022,0.0454958000000261,0.379555299999993,0.0139737412527265,0
3,4,507,40,4,-45,-1.8546873026985,-1,0.68114340000011,0.0401330000004236,0.0466771999999764,0.0139737412527265,1
44,4,508,860,86,45,-1.8546873026985,1,0.536749500000042,0.045529365848779,0.857953534150511,0.0139737412527265,1
12,4,509,220,22,45,-1.8546873026985,1,0.491035699999884,0.0440680000001521,0.216825299999982,0.0139737412527265,1
18,4,510,340,34,45,-1.8546873026985,1,0.543292899999869,0.0465193999998519,0.337861099999827,0.0139737412527265,1
43,4,511,840,84,45,-1.8546873026985,1,0.501371800000015,0.0492549000000508,0.841399199999614,0.0139737412527265,1
4,4,512,60,6,45,-1.8546873026985,1,0.619819300000017,0.0512416000001394,0.064837400000215,0.0139737412527265,1
38,4,513,740,74,45,-1.8546873026985,1,0.532108000000335,0.0493683000004239,0.746133499999814,0.0139737412527265,1
43,4,514,840,84,-45,-1.8546873026985,-1,0.562173899999834,0.0411401999999725,0.836800500000209,0.0139737412527265,1
6,4,515,100,10,45,-1.8546873026985,1,0.812646899999891,0.0400449999997363,0.107369100000142,0.0139737412527265,1
25,4,516,480,48,45,-1.8546873026985,1,0.508206600000449,0.05004850000023,0.481793599999946,0.0139737412527265,1
30,4,517,580,58,45,-1.8546873026985,-1,0.676670699999704,0.0511474000004455,0.584228499999881,0.0139737412527265,0
17,4,518,320,32,45,-1.8546873026985,1,0.649852699999428,0.0416052000000491,0.316453899999942,0.0139737412527265,1
1,4,519,0,0,45,-1.8546873026985,1,0.61459350000041,0.0491947999998956,0.00796869999976479,0.0139737412527265,1
32,4,520,620,62,45,-1.8546873026985,1,0.583713300000454,0.0449015999993208,0.619265700000142,0.0139737412527265,1
20,4,521,380,38,-45,-1.8546873026985,-1,0.580884900000456,0.0481876999992892,0.379029900000205,0.0139737412527265,1
16,4,522,300,30,45,-1.8546873026985,1,0.622784700000011,0.0493711999997686,0.303957099999934,0.0139737412527265,1
15,4,523,280,28,45,-1.8546873026985,-1,2.54394849999971,0.0511907000000065,0.284643899999537,0.0139737412527265,0
24,4,524,460,46,45,-1.8546873026985,1,0.619586099999651,0.0510997999999745,0.464837600000465,0.0139737412527265,1
26,4,525,500,50,45,-1.8546873026985,-1,0.487259800000174,0.0501004999996439,0.502472500000295,0.0139737412527265,0
42,4,526,820,82,-45,-1.8546873026985,1,0.501865100000032,0.0414201999992656,0.816654400000516,0.0139737412527265,0
49,4,527,960,96,-45,-1.8546873026985,-1,0.530960200000663,0.0454450000006545,0.959712599999875,0.0139737412527265,1
39,4,528,760,76,-45,-1.8546873026985,1,0.608030600000347,0.0429042999994635,0.756681000000754,0.0139737412527265,0
30,4,529,580,58,-45,-1.8546873026985,1,0.891663600000356,0.0487105000001975,0.579547099999218,0.0139737412527265,0
10,4,530,180,18,45,-1.8546873026985,1,0.670976999999766,0.0457249000000957,0.179181999999855,0.0139737412527265,1
11,4,531,200,20,45,-1.8546873026985,1,0.586331999999857,0.0471860999996352,0.198424199999863,0.0139737412527265,1
35,4,532,680,68,-45,-1.8546873026985,-1,0.929335800000445,0.0414381999999023,0.676900399999795,0.0139737412527265,1
25,4,533,480,48,-45,-1.8546873026985,-1,1.01128019999942,0.0467749999997977,0.477925900000628,0.0139737412527265,1
19,4,534,360,36,-45,-1.8546873026985,1,0.640310199999476,0.0427595621695218,0.356884637831172,0.0139737412527265,0
48,4,535,940,94,-45,-1.8546873026985,-1,0.481761499999266,0.0496237999996083,0.940355000000636,0.0139737412527265,1
27,4,536,520,52,-45,-1.8546873026985,-1,0.772320900000523,0.0496532999995907,0.521967900000163,0.0139737412527265,1
36,4,537,700,70,45,-1.8546873026985,-1,1.50104949999968,0.0419504000001325,0.696924999999283,0.0139737412527265,0
23,4,538,440,44,45,-1.8546873026985,1,0.534529999999904,0.0492802999997366,0.440036400000281,0.0139737412527265,1
41,4,539,800,80,-45,-1.8546873026985,1,0.659342899999501,0.0448943000001236,0.799596300000303,0.0139737412527265,0
4,4,540,60,6,45,-1.8546873026985,1,0.671091600000182,0.0504695999998148,0.0783485000001747,0.0139737412527265,1
49,4,541,960,96,-45,-1.8546873026985,1,0.65947000000051,0.0448132999999871,0.959357799999452,0.0139737412527265,0
23,4,542,440,44,-45,-1.8546873026985,-1,0.593520700000226,0.0421743000006245,0.43618189999961,0.0139737412527265,1
5,4,543,80,8,45,-1.8546873026985,1,0.653618800000004,0.0399433000002318,0.0907944000000498,0.0139737412527265,1
26,4,544,500,50,45,-1.8546873026985,1,0.517645700000685,0.0414021999995384,0.496777299999849,0.0139737412527265,1
34,4,545,660,66,45,-1.8546873026985,1,0.500559500000236,0.0509763000000021,0.66453089999959,0.0139737412527265,1
29,4,546,560,56,45,-1.8546873026985,1,0.500014100000044,0.0449977999996918,0.559240399999908,0.0139737412527265,1
12,4,547,220,22,-45,-1.8546873026985,-1,0.572466999999961,0.0424899000008736,0.216578499999741,0.0139737412527265,1
1,4,548,0,0,-45,-1.8546873026985,-1,0.78787900000043,0.0400260000005801,0.0204538999996657,0.0139737412527265,1
47,4,549,920,92,-45,-1.8546873026985,-1,0.658687799999825,0.0408180999993419,0.916653500000393,0.0139737412527265,1
9,4,550,160,16,-45,-1.8546873026985,-1,0.661310100000264,0.0449414000004253,0.15779190000012,0.0139737412527265,1
39,4,551,760,76,-45,-1.8546873026985,-1,0.62418499999967,0.0428652000000511,0.756824699999925,0.0139737412527265,1
21,4,552,400,40,45,-1.8546873026985,1,0.782533599999624,0.0491979999997056,0.400492499999928,0.0139737412527265,1
28,4,553,540,54,-45,-1.8546873026985,1,0.7169571000004,0.0423235304724585,0.536964369527595,0.0139737412527265,0
37,4,554,720,72,45,-1.8546873026985,1,7.03228730000046,0.0426618034889543,0.716982996511433,0.0139737412527265,1
51,4,555,1000,100,-45,-1.8546873026985,-1,0.562643800000842,0.0512425999995685,1.0017114000002,0.0139737412527265,1
27,4,556,520,52,-45,-1.8546873026985,1,4.32416829999966,0.0501005999994959,0.521394500000497,0.0139737412527265,0
37,4,557,720,72,-45,-1.8546873026985,-1,0.547796500000004,0.0460839000006672,0.718306799999482,0.0139737412527265,1
51,4,558,1000,100,-45,-1.8546873026985,-1,0.533471699999609,0.0495361000002958,1.00082569999995,0.0139737412527265,1
34,4,559,660,66,45,-1.8546873026985,1,0.488349999999627,0.049554199999875,0.661733200000526,0.0139737412527265,1
46,4,560,900,90,45,-1.8546873026985,1,0.96633010000005,0.0407114999998157,0.896933899999567,0.0139737412527265,1
8,4,561,140,14,-45,-1.8546873026985,-1,0.519193599999198,0.0453355999998166,0.139320499999485,0.0139737412527265,1
15,4,562,280,28,45,-1.8546873026985,1,0.691298400000051,0.051325800000086,0.281234999999469,0.0139737412527265,1
47,4,563,920,92,-45,-1.8546873026985,-1,0.495188099999723,0.0441605000005438,0.916896599999745,0.0139737412527265,1
35,4,564,680,68,45,-1.8546873026985,1,0.513370499999837,0.0417362000007415,0.676666100000148,0.0139737412527265,1
33,4,565,640,64,-45,-1.8546873026985,1,0.499552700000095,0.0450400999998237,0.639505699999972,0.0139737412527265,0
6,4,566,100,10,45,-1.8546873026985,1,0.590783399999964,0.0400764000005438,0.121122300000025,0.0139737412527265,1
2,4,567,20,2,45,-1.8546873026985,-1,0.617675000000418,0.0498806000005061,0.0366205000000264,0.0139737412527265,0
22,4,568,420,42,-45,-1.8546873026985,1,0.490265100000215,0.0488900999998805,0.420429200000399,0.0139737412527265,0
38,4,569,740,74,45,-1.8546873026985,1,0.645181900000352,0.0506193000001076,0.744020499999351,0.0139737412527265,1
31,4,570,600,60,45,-1.8546873026985,1,0.596125199999733,0.0494619999999486,0.602525700000115,0.0139737412527265,1
50,4,571,980,98,-45,-1.8546873026985,-1,0.526150900000175,0.047040599999491,0.978944100000263,0.0139737412527265,1
1,4,572,0,0,45,-1.8546873026985,-1,1.5573346000001,0.0503061999997954,0.00866309999946679,0.0139737412527265,0
15,4,573,280,28,45,-1.8546873026985,-1,0.484402300000511,0.0478689000001395,0.283586800000194,0.0139737412527265,0
13,4,574,240,24,-45,-1.8546873026985,1,0.583529300000009,0.0434809999997015,0.236489700000675,0.0139737412527265,0
39,4,575,760,76,45,-1.8546873026985,1,0.720426899999438,0.0422323304719612,0.75715396952819,0.0139737412527265,1
42,4,576,820,82,-45,-1.8546873026985,-1,0.596588200000042,0.0428056999999171,0.816914899999574,0.0139737412527265,1
51,4,577,1000,100,45,-1.8546873026985,1,0.511713599999894,0.0437520000004952,0.996962099999109,0.0139737412527265,1
12,4,578,220,22,-45,-1.8546873026985,1,0.605939499999295,0.0413827000002129,0.216755299999932,0.0139737412527265,0
21,4,579,400,40,-45,-1.8546873026985,1,0.979165099999591,0.045267700000295,0.399554599999647,0.0139737412527265,0
36,4,580,700,70,45,-1.8546873026985,-1,0.519125099999656,0.0452470000000176,0.699098300000514,0.0139737412527265,0
42,4,581,820,82,45,-1.8546873026985,-1,1.02925440000035,0.041633400000137,0.816844900000433,0.0139737412527265,0
17,4,582,320,32,45,-1.8546873026985,1,0.616639300000315,0.0494789999993372,0.325648800000636,0.0139737412527265,1
46,4,583,900,90,45,-1.8546873026985,1,0.708430700000463,0.0497567000002164,0.905711999999767,0.0139737412527265,1
18,4,584,340,34,-45,-1.8546873026985,-1,0.468755699999747,0.0498493000004601,0.345278299999336,0.0139737412527265,1
45,4,585,880,88,45,-1.8546873026985,1,0.593368199999531,0.0476840000001175,0.878978200000347,0.0139737412527265,1
45,4,586,880,88,-45,-1.8546873026985,1,1.02888389999953,0.0443479000005027,0.878778899999816,0.0139737412527265,0
8,4,587,140,14,45,-1.8546873026985,1,0.605901899999481,0.0419988000003286,0.136293200000182,0.0139737412527265,1
22,4,588,420,42,45,-1.8546873026985,1,1.08760629999961,0.0450928999998723,0.419556900000316,0.0139737412527265,1
38,4,589,740,74,45,-1.8546873026985,1,0.564854600000217,0.0495904999997947,0.745236800000384,0.0139737412527265,1
8,4,590,140,14,45,-1.8546873026985,1,0.603733899999497,0.0495365999995556,0.146137200000339,0.0139737412527265,1
44,4,591,860,86,-45,-1.8546873026985,-1,0.501286800000344,0.0400869000004604,0.866451500000039,0.0139737412527265,1
40,4,592,780,78,-45,-1.8546873026985,1,0.924474999999802,0.0513100000007398,0.784276299999874,0.0139737412527265,0
19,4,593,360,36,45,-1.8546873026985,-1,0.608345199999349,0.049540099999831,0.36569099999997,0.0139737412527265,0
45,4,594,880,88,-45,-1.8546873026985,-1,0.602152500000557,0.0404435000000376,0.876951799999915,0.0139737412527265,1
35,4,595,680,68,-45,-1.8546873026985,-1,0.536427199999707,0.0476945999998861,0.679521199999726,0.0139737412527265,1
17,4,596,320,32,-45,-1.8546873026985,-1,0.522095699999227,0.0497580999999627,0.323825599999509,0.0139737412527265,1
7,4,597,120,12,-45,-1.8546873026985,1,0.632666600000448,0.047896000000037,0.119244599999547,0.0139737412527265,0
24,4,598,460,46,45,-1.8546873026985,1,0.654944800000521,0.0450678243387301,0.459824675661366,0.0139737412527265,1
19,4,599,360,36,45,-1.8546873026985,1,0.624341300000196,0.0416617999999289,0.357595399999809,0.0139737412527265,1
30,4,600,580,58,45,-1.8546873026985,-1,0.818480699999782,0.0444875000002867,0.576720500000192,0.0139737412527265,0
33,4,601,640,64,45,-1.8546873026985,1,0.586168900000303,0.0413716999992175,0.636578000000554,0.0139737412527265,1
6,4,602,100,10,-45,-1.8546873026985,1,0.737431100000322,0.0452973000001293,0.0974369000005026,0.0139737412527265,0
7,4,603,120,12,45,-1.8546873026985,-1,0.619111300000441,0.0456970000004731,0.118491600000198,0.0139737412527265,0
16,4,604,300,30,45,-1.8546873026985,1,0.54115880000063,0.0427804000000833,0.296500800000103,0.0139737412527265,1
3,4,605,40,4,-45,-1.8546873026985,-1,0.525685399999929,0.0504967999995642,0.0634681000001365,0.0139737412527265,1
20,4,606,380,38,-45,-1.8546873026985,1,0.650339400000121,0.0439353987740105,0.377555401226346,0.0139737412527265,0
21,4,607,400,40,45,-1.8546873026985,1,0.596760700000232,0.0454300999999759,0.39763050000056,0.0139737412527265,1
29,4,608,560,56,45,-1.8546873026985,1,0.841928400000143,0.0415156999997635,0.556751000000077,0.0139737412527265,1
32,4,609,620,62,45,-1.8546873026985,1,0.641328000000613,0.049551000000065,0.621286900000086,0.0139737412527265,1
11,4,610,200,20,-45,-1.8546873026985,1,0.753933100000722,0.0412667000000511,0.196418599999561,0.0139737412527265,0
2,4,611,20,2,45,-1.8546873026985,1,0.768370000000687,0.0407795000000988,0.0390888000001723,0.0139737412527265,1
25,4,612,480,48,-45,-1.8546873026985,1,0.640432799999871,0.0488878999994995,0.478659500000504,0.0139737412527265,0
22,5,613,420,42,45,-1.8546873026985,1,0.729174799999782,0.0500302999998894,0.420778700000483,0.0139737412527265,1
37,5,614,720,72,-45,-1.8546873026985,-1,0.499791299999742,0.0454458000003797,0.718885399999635,0.0139737412527265,1
17,5,615,320,32,-45,-1.8546873026985,-1,0.523165999999947,0.0405532999993738,0.316463699999986,0.0139737412527265,1
27,5,616,520,52,-45,-1.8546873026985,-1,0.486256199999843,0.0492335999997522,0.520447400000194,0.0139737412527265,1
19,5,617,360,36,-45,-1.8546873026985,-1,0.489621700000498,0.0475869000001694,0.359001999999236,0.0139737412527265,1
35,5,618,680,68,45,-1.8546873026985,1,0.466942200000631,0.0407245999995212,0.676716500000111,0.0139737412527265,1
2,5,619,20,2,-45,-1.8546873026985,-1,0.863364799999545,0.0400130999996691,0.0405923999996958,0.0139737412527265,1
8,5,620,140,14,45,-1.8546873026985,1,0.542557099999613,0.0413105000006908,0.136393400000088,0.0139737412527265,1
14,5,621,260,26,45,-1.8546873026985,1,0.806397199999992,0.0410596000001533,0.256536300000334,0.0139737412527265,1
34,5,622,660,66,45,-1.8546873026985,-1,0.534225600000354,0.0410719999999856,0.656758000000082,0.0139737412527265,0
37,5,623,720,72,-45,-1.8546873026985,-1,0.531225099999574,0.0453600000000733,0.718919900000401,0.0139737412527265,1
44,5,624,860,86,45,-1.8546873026985,-1,0.537407099999655,0.0446438999997554,0.857798900000489,0.0139737412527265,0
28,5,625,540,54,45,-1.8546873026985,1,0.493407799999659,0.0419639000001553,0.536620199999561,0.0139737412527265,1
24,5,626,460,46,-45,-1.8546873026985,-1,0.415852499999346,0.0496875999997428,0.462385000000722,0.0139737412527265,1
5,5,627,80,8,45,-1.8546873026985,1,0.555352699999276,0.0403309999992416,0.0761732000000848,0.0139737412527265,1
9,5,628,160,16,-45,-1.8546873026985,-1,0.490538899999592,0.0411101999998209,0.156336600000031,0.0139737412527265,1
32,5,629,620,62,45,-1.8546873026985,1,0.474885300000096,0.0439652999993996,0.617122999999992,0.0139737412527265,1
2,5,630,20,2,45,-1.8546873026985,1,0.595155900000464,0.0399924000003011,0.0371205000001282,0.0139737412527265,1
19,5,631,360,36,-45,-1.8546873026985,-1,0.56226659999993,0.0407548000002862,0.356832100000247,0.0139737412527265,1
48,5,632,940,94,-45,-1.8546873026985,1,0.524747899999966,0.0421814000001177,0.93728370000008,0.0139737412527265,0
4,5,633,60,6,45,-1.8546873026985,1,1.87013630000001,0.0412502999997741,0.0562003000004552,0.0139737412527265,1
12,5,634,220,22,45,-1.8546873026985,-1,1.50255729999935,0.0409641000005649,0.216494299999795,0.0139737412527265,0
29,5,635,560,56,-45,-1.8546873026985,-1,0.579286999999567,0.0450503000001845,0.559637400000611,0.0139737412527265,1
18,5,636,340,34,-45,-1.8546873026985,-1,0.613916299999801,0.0408455975466495,0.337113502453576,0.0139737412527265,1
45,5,637,880,88,-45,-1.8546873026985,-1,0.505698500000108,0.0416881000001013,0.876790500000425,0.0139737412527265,1
7,5,638,120,12,45,-1.8546873026985,-1,0.741481199999726,0.0501272999999856,0.136596199999985,0.0139737412527265,0
3,5,639,40,4,-45,-1.8546873026985,-1,0.680553099999997,0.0508300999999847,0.0527229999997871,0.0139737412527265,1
29,5,640,560,56,45,-1.8546873026985,1,0.4395813000001,0.0509720999998535,0.565072899999905,0.0139737412527265,1
49,5,641,960,96,-45,-1.8546873026985,1,0.531949299999724,0.0460736999993969,0.957920100000592,0.0139737412527265,0
47,5,642,920,92,-45,-1.8546873026985,-1,0.565563400000428,0.0492650000005597,0.920901800000138,0.0139737412527265,1
3,5,643,40,4,-45,-1.8546873026985,1,1.00853370000004,0.0400181999993947,0.055401399999937,0.0139737412527265,0
28,5,644,540,54,-45,-1.8546873026985,1,0.498818400000346,0.0482372999995277,0.540613000000121,0.0139737412527265,0
31,5,645,600,60,-45,-1.8546873026985,-1,1.0308014000002,0.0491979000007632,0.600329399999282,0.0139737412527265,1
30,5,646,580,58,45,-1.8546873026985,1,0.519667600000503,0.0494846000001417,0.582738000000063,0.0139737412527265,1
43,5,647,840,84,-45,-1.8546873026985,-1,0.964974399999846,0.0496646999999939,0.841509900000347,0.0139737412527265,1
23,5,648,440,44,-45,-1.8546873026985,1,0.532021600000007,0.0496802000006937,0.442390199999863,0.0139737412527265,0
6,5,649,100,10,-45,-1.8546873026985,-1,0.723204299999452,0.0430465963199822,0.0973397036796086,0.0139737412527265,1
15,5,650,280,28,-45,-1.8546873026985,-1,0.84023949999937,0.0481312000001708,0.279197900000327,0.0139737412527265,1
14,5,651,260,26,45,-1.8546873026985,1,0.592080700000224,0.0449240999996618,0.259019200000694,0.0139737412527265,1
6,5,652,100,10,45,-1.8546873026985,1,0.687134400000105,0.0400343999999677,0.12086459999955,0.0139737412527265,1
15,5,653,280,28,45,-1.8546873026985,1,0.591003900000032,0.0441282000001593,0.276893699999164,0.0139737412527265,1
24,5,654,460,46,45,-1.8546873026985,-1,0.715248900000006,0.0424582000005103,0.458553099999335,0.0139737412527265,0
19,5,655,360,36,45,-1.8546873026985,1,0.81972450000012,0.0495117999998911,0.362950799999453,0.0139737412527265,1
11,5,656,200,20,45,-1.8546873026985,1,0.69983990000037,0.0464847000002919,0.197337800000241,0.0139737412527265,1
6,5,657,100,10,45,-1.8546873026985,-1,0.537128699999812,0.0400321000006443,0.111205100000006,0.0139737412527265,0
40,5,658,780,78,45,-1.8546873026985,1,0.503895599999851,0.0448836316973029,0.779369868302638,0.0139737412527265,1
38,5,659,740,74,45,-1.8546873026985,1,0.611723600000005,0.0433026316977703,0.736915668301663,0.0139737412527265,1
35,5,660,680,68,-45,-1.8546873026985,1,1.20162299999993,0.0414524999996502,0.676687099999981,0.0139737412527265,0
10,5,661,180,18,-45,-1.8546873026985,1,0.693413199999668,0.0417397999999594,0.176562799999374,0.0139737412527265,0
17,5,662,320,32,45,-1.8546873026985,1,0.586241700000755,0.0411295999992944,0.316454000000704,0.0139737412527265,1
26,5,663,500,50,-45,-1.8546873026985,-1,0.660768400000052,0.0513588000003438,0.504022599999189,0.0139737412527265,1
11,5,664,200,20,45,-1.8546873026985,1,0.552611099999922,0.048041000000012,0.199136400000498,0.0139737412527265,1
33,5,665,640,64,45,-1.8546873026985,1,0.553922999999486,0.0407825000002049,0.636772199999541,0.0139737412527265,1
1,5,666,0,0,-45,-1.8546873026985,1,0.917383999999402,0.0505639000002702,0.0237682999995741,0.0139737412527265,0
51,5,667,1000,100,-45,-1.8546873026985,1,0.562517899999875,0.0406497000003583,0.996690699999817,0.0139737412527265,0
26,5,668,500,50,45,-1.8546873026985,1,1.20307820000016,0.0507417999997415,0.50578140000016,0.0139737412527265,1
40,5,669,780,78,45,-1.8546873026985,-1,0.620292799999334,0.0428319000002375,0.777053300000262,0.0139737412527265,0
37,5,670,720,72,-45,-1.8546873026985,-1,0.585441100000025,0.0415348000005906,0.716685699999289,0.0139737412527265,1
49,5,671,960,96,45,-1.8546873026985,1,0.819102400000702,0.0452007000003505,0.95974969999952,0.0139737412527265,1
20,5,672,380,38,45,-1.8546873026985,1,0.797101600000133,0.0493918000001941,0.385311900000488,0.0139737412527265,1
20,5,673,380,38,45,-1.8546873026985,1,0.575974899999892,0.0496542999999292,0.382221400000162,0.0139737412527265,1
31,5,674,600,60,45,-1.8546873026985,1,0.807082799999989,0.0487804000003962,0.600253199999315,0.0139737412527265,1
16,5,675,300,30,-45,-1.8546873026985,1,0.555030000000443,0.0434260000001814,0.296986800000013,0.0139737412527265,0
10,5,676,180,18,45,-1.8546873026985,1,0.536227499999768,0.049952299999859,0.181565400000181,0.0139737412527265,1
36,5,677,700,70,-45,-1.8546873026985,-1,0.58140370000001,0.0474186999999802,0.698924700000134,0.0139737412527265,1
1,5,678,0,0,45,-1.8546873026985,-1,4.23162400000001,0.0399587000001702,0.0163940000002185,0.0139737412527265,0
39,5,679,760,76,45,-1.8546873026985,1,0.948021299999709,0.0495138000005682,0.762100199999622,0.0139737412527265,1
43,5,680,840,84,-45,-1.8546873026985,-1,0.790153500000088,0.0490829000000303,0.840775800000301,0.0139737412527265,1
18,5,681,340,34,45,-1.8546873026985,1,0.623124099999586,0.045535899999777,0.339037699999608,0.0139737412527265,1
51,5,682,1000,100,45,-1.8546873026985,1,0.562356299999919,0.0495485999999801,1.00373489999947,0.0139737412527265,1
9,5,683,160,16,45,-1.8546873026985,1,0.600720100000217,0.0428144999996221,0.156361000000288,0.0139737412527265,1
12,5,684,220,22,-45,-1.8546873026985,-1,0.564985500000148,0.0474745999999868,0.219493300000067,0.0139737412527265,1
35,5,685,680,68,45,-1.8546873026985,1,0.487913099999787,0.0481638000001112,0.679637999999613,0.0139737412527265,1
1,5,686,0,0,-45,-1.8546873026985,1,0.665016999999352,0.0401559000001726,0.0144804000001386,0.0139737412527265,0
48,5,687,940,94,-45,-1.8546873026985,-1,0.587643300000309,0.0432379999992918,0.936980100000255,0.0139737412527265,1
26,5,688,500,50,-45,-1.8546873026985,1,0.594270999999935,0.0433647999998357,0.49879669999973,0.0139737412527265,0
27,5,689,520,52,45,-1.8546873026985,1,0.581401899999946,0.0492419999991398,0.521220700000413,0.0139737412527265,1
21,5,690,400,40,45,-1.8546873026985,1,0.488715899999988,0.049665499999719,0.405600899999627,0.0139737412527265,1
36,5,691,700,70,45,-1.8546873026985,1,0.558228500000041,0.0408508000000438,0.696681099999296,0.0139737412527265,1
39,5,692,760,76,-45,-1.8546873026985,1,0.587435299999925,0.0449922999996488,0.759258600000067,0.0139737412527265,0
46,5,693,900,90,45,-1.8546873026985,1,0.552555099999154,0.0499369999997725,0.901350099999945,0.0139737412527265,1
22,5,694,420,42,-45,-1.8546873026985,1,0.645589200000359,0.0417514000000665,0.416684100000566,0.0139737412527265,0
50,5,695,980,98,45,-1.8546873026985,1,0.582483000000138,0.0404200000002675,0.97704640000029,0.0139737412527265,1
3,5,696,40,4,-45,-1.8546873026985,1,0.632917999999336,0.0400055000000066,0.0630597999997917,0.0139737412527265,0
48,5,697,940,94,45,-1.8546873026985,-1,0.525724199999786,0.0493144000001848,0.944963599999937,0.0139737412527265,0
11,5,698,200,20,-45,-1.8546873026985,1,0.52988219999952,0.0413175000003321,0.196717399999216,0.0139737412527265,0
7,5,699,120,12,45,-1.8546873026985,-1,0.745567000000847,0.040021899999374,0.126256200000171,0.0139737412527265,0
8,5,700,140,14,-45,-1.8546873026985,1,0.70284090000041,0.0408978000004936,0.136307900000247,0.0139737412527265,0
5,5,701,80,8,45,-1.8546873026985,1,1.07181009999931,0.0400661000003311,0.087765500000387,0.0139737412527265,1
31,5,702,600,60,-45,-1.8546873026985,-1,0.795210999999654,0.0450678000006519,0.599677999999585,0.0139737412527265,1
41,5,703,800,80,45,-1.8546873026985,1,0.856314000000566,0.0506652000003669,0.805207999999766,0.0139737412527265,1
38,5,704,740,74,45,-1.8546873026985,1,0.536981000000196,0.0494905999994444,0.741396500000519,0.0139737412527265,1
2,5,705,20,2,-45,-1.8546873026985,-1,0.604029699999955,0.0399675999997271,0.0283441000001403,0.0139737412527265,1
50,5,706,980,98,-45,-1.8546873026985,1,0.470568800000365,0.0409270999998625,0.976618400000007,0.0139737412527265,0
16,5,707,300,30,-45,-1.8546873026985,1,0.522823799999969,0.043800999999803,0.296789600000011,0.0139737412527265,0
43,5,708,840,84,-45,-1.8546873026985,-1,0.930663600000116,0.0512602999997398,0.841644699999961,0.0139737412527265,1
28,5,709,540,54,45,-1.8546873026985,-1,0.581465299999763,0.0401542999998128,0.546355100000255,0.0139737412527265,0
42,5,710,820,82,-45,-1.8546873026985,1,0.709394599999541,0.0499061000000438,0.824701700000332,0.0139737412527265,0
8,5,711,140,14,45,-1.8546873026985,1,0.531798399999388,0.0485650000000533,0.139504599999782,0.0139737412527265,1
17,5,712,320,32,45,-1.8546873026985,1,0.461643900000126,0.0496818999999959,0.320903499999986,0.0139737412527265,1
22,5,713,420,42,45,-1.8546873026985,1,0.50946440000007,0.0399370999994062,0.426419100000203,0.0139737412527265,1
7,5,714,120,12,45,-1.8546873026985,1,0.518560100000286,0.0493921000006594,0.119955000000118,0.0139737412527265,1
33,5,715,640,64,-45,-1.8546873026985,-1,0.506508899999972,0.0404820000003383,0.636620799999946,0.0139737412527265,1
40,5,716,780,78,45,-1.8546873026985,1,0.540905200000452,0.0511494000002131,0.783994500000517,0.0139737412527265,1
44,5,717,860,86,-45,-1.8546873026985,1,1.35955779999949,0.0496210999999676,0.86224730000049,0.0139737412527265,0
18,5,718,340,34,45,-1.8546873026985,1,0.500355199999831,0.041798000000199,0.337698100000125,0.0139737412527265,1
50,5,719,980,98,-45,-1.8546873026985,1,0.686917499999254,0.046842500000821,0.978311999999278,0.0139737412527265,0
51,5,720,1000,100,-45,-1.8546873026985,-1,0.495752400000129,0.0434331999995266,0.996705700000348,0.0139737412527265,1
13,5,721,240,24,-45,-1.8546873026985,1,0.629444899999726,0.0446662000003926,0.237918300000274,0.0139737412527265,0
46,5,722,900,90,-45,-1.8546873026985,-1,0.4846136999995,0.0422625000001062,0.89691270000003,0.0139737412527265,1
34,5,723,660,66,-45,-1.8546873026985,-1,0.778152099999716,0.0494128000000273,0.66071490000013,0.0139737412527265,1
49,5,724,960,96,45,-1.8546873026985,-1,0.460127600000305,0.0497379999997065,0.962009500000022,0.0139737412527265,0
36,5,725,700,70,-45,-1.8546873026985,-1,0.621439900000041,0.0414640999997573,0.696692800000164,0.0139737412527265,1
5,5,726,80,8,-45,-1.8546873026985,1,0.524694499999896,0.0406788999998753,0.090870700000778,0.0139737412527265,0
25,5,727,480,48,-45,-1.8546873026985,-1,0.502393600000687,0.0446595000003072,0.476842099999885,0.0139737412527265,1
39,5,728,760,76,45,-1.8546873026985,1,0.494406400000116,0.0511816999996881,0.766345199999705,0.0139737412527265,1
13,5,729,240,24,-45,-1.8546873026985,-1,0.508554499999263,0.049881899999491,0.242136100000607,0.0139737412527265,1
14,5,730,260,26,-45,-1.8546873026985,-1,0.707910699999957,0.0510323999997127,0.264919700000064,0.0139737412527265,1
47,5,731,920,92,45,-1.8546873026985,1,0.527333499999258,0.0440976999998384,0.916862799999763,0.0139737412527265,1
32,5,732,620,62,45,-1.8546873026985,1,0.477131599999666,0.0496132999996917,0.625251600000411,0.0139737412527265,1
42,5,733,820,82,-45,-1.8546873026985,-1,0.852559200000542,0.049785599999268,0.825821800000085,0.0139737412527265,1
42,5,734,820,82,-45,-1.8546873026985,-1,0.502895599999647,0.0405231999993703,0.816694300000563,0.0139737412527265,1
41,5,735,800,80,45,-1.8546873026985,-1,0.681457800000317,0.0497191000004022,0.804040600000008,0.0139737412527265,0
30,5,736,580,58,-45,-1.8546873026985,1,0.893342600000324,0.0476674000001367,0.578943499999696,0.0139737412527265,0
41,5,737,800,80,-45,-1.8546873026985,-1,0.45642559999942,0.0497540999995181,0.805784600000152,0.0139737412527265,1
25,5,738,480,48,-45,-1.8546873026985,-1,0.500803599999927,0.0452382304720231,0.477947269528158,0.0139737412527265,1
15,5,739,280,28,45,-1.8546873026985,1,0.491195099999459,0.0455530999997791,0.279479599999831,0.0139737412527265,1
23,5,740,440,44,45,-1.8546873026985,1,0.465652799999589,0.0497139999997671,0.444632800000363,0.0139737412527265,1
45,5,741,880,88,-45,-1.8546873026985,1,0.564370199999757,0.0449238975470507,0.878732202453648,0.0139737412527265,0
47,5,742,920,92,45,-1.8546873026985,1,0.626942400000189,0.0404747000002317,0.916679799999656,0.0139737412527265,1
23,5,743,440,44,-45,-1.8546873026985,1,0.627927700000328,0.049699000000146,0.441902700000355,0.0139737412527265,0
21,5,744,400,40,-45,-1.8546873026985,1,0.679696899999726,0.0499410402835565,0.405858099999932,0.0139737412527265,0
16,5,745,300,30,45,-1.8546873026985,1,0.552492100000563,0.0460539000005156,0.297578799999428,0.0139737412527265,1
32,5,746,620,62,45,-1.8546873026985,1,0.526367700000264,0.0405316999995193,0.616675000000214,0.0139737412527265,1
21,5,747,400,40,45,-1.8546873026985,1,0.435932300000786,0.0450170000003709,0.39920069999971,0.0139737412527265,1
33,5,748,640,64,-45,-1.8546873026985,-1,0.435470400000668,0.0454298999993625,0.639383600000656,0.0139737412527265,1
20,5,749,380,38,-45,-1.8546873026985,-1,0.460317099999884,0.0425651999994443,0.376871299999948,0.0139737412527265,1
34,5,750,660,66,45,-1.8546873026985,1,0.652968899999905,0.0400118000006842,0.666705300000103,0.0139737412527265,1
46,5,751,900,90,45,-1.8546873026985,1,0.601887499999975,0.0494824999996126,0.900838300000032,0.0139737412527265,1
24,5,752,460,46,-45,-1.8546873026985,1,0.86181310000029,0.041392399999495,0.456678700000339,0.0139737412527265,0
38,5,753,740,74,45,-1.8546873026985,-1,0.437909299999774,0.0497064999999566,0.744048600000497,0.0139737412527265,0
44,5,754,860,86,-45,-1.8546873026985,1,0.73289079999995,0.0510294999994585,0.864195300000574,0.0139737412527265,0
27,5,755,520,52,-45,-1.8546873026985,-1,0.517998899999839,0.0495717000003424,0.520750200000293,0.0139737412527265,1
12,5,756,220,22,-45,-1.8546873026985,1,0.876318200000242,0.0422030999998242,0.217555100000027,0.0139737412527265,0
10,5,757,180,18,-45,-1.8546873026985,-1,0.847364199999902,0.046653299999889,0.178215500000078,0.0139737412527265,1
4,5,758,60,6,-45,-1.8546873026985,-1,0.78951380000035,0.0400241000006645,0.0825257999995301,0.0139737412527265,1
9,5,759,160,16,45,-1.8546873026985,1,0.601403700000446,0.0424131999998281,0.156261200000699,0.0139737412527265,1
29,5,760,560,56,-45,-1.8546873026985,1,0.599579599999743,0.0427384000004167,0.55781559999923,0.0139737412527265,0
13,5,761,240,24,45,-1.8546873026985,-1,0.522098799999185,0.0414588000003278,0.236625099999401,0.0139737412527265,0
45,5,762,880,88,45,-1.8546873026985,1,0.520065700000487,0.0494557000001805,0.886460300000181,0.0139737412527265,1
30,5,763,580,58,-45,-1.8546873026985,-1,0.559743400000116,0.045071999999891,0.579077500000494,0.0139737412527265,1
4,5,764,60,6,-45,-1.8546873026985,1,1.51472290000038,0.0399598000003607,0.0772759000001315,0.0139737412527265,0
25,5,765,480,48,45,-1.8546873026985,1,0.41041210000003,0.0407674658490578,0.476814934150752,0.0139737412527265,1
43,6,766,840,84,45,-1.8546873026985,1,0.57687100000021,0.0493022000000565,0.845780100000411,0.0139737412527265,1
28,6,767,540,54,45,-1.8546873026985,1,0.717989900000248,0.0416527999996106,0.536561300000358,0.0139737412527265,1
8,6,768,140,14,45,-1.8546873026985,1,0.454440299999987,0.0400776000005862,0.161529999999402,0.0139737412527265,1
37,6,769,720,72,-45,-1.8546873026985,1,0.442201699999714,0.0406867987730948,0.716992001226572,0.0139737412527265,0
21,6,770,400,40,45,-1.8546873026985,1,0.466461600000002,0.0456098000004204,0.399672699999428,0.0139737412527265,1
38,6,771,740,74,-45,-1.8546873026985,-1,0.374092300000484,0.0409613000001627,0.736662599999363,0.0139737412527265,1
11,6,772,200,20,45,-1.8546873026985,1,0.481083900000158,0.0500684999997247,0.2048020000002,0.0139737412527265,1
5,6,773,80,8,-45,-1.8546873026985,1,0.597226899999441,0.0400927999999112,0.0987918999999238,0.0139737412527265,0
40,6,774,780,78,-45,-1.8546873026985,-1,0.58915160000015,0.0512355000000753,0.783477399999356,0.0139737412527265,1
33,6,775,640,64,45,-1.8546873026985,-1,0.60148130000016,0.0412829000006241,0.636903399999937,0.0139737412527265,0
32,6,776,620,62,-45,-1.8546873026985,1,0.584300499999699,0.0457445000001826,0.618011399999887,0.0139737412527265,0
5,6,777,80,8,-45,-1.8546873026985,1,0.611889699999665,0.0400167999996484,0.0998673000003691,0.0139737412527265,0
23,6,778,440,44,-45,-1.8546873026985,-1,0.44932560000052,0.0424075000000812,0.436578499999996,0.0139737412527265,1
51,6,779,1000,100,45,-1.8546873026985,1,0.566690499999822,0.0489097999998194,1.00018040000032,0.0139737412527265,1
18,6,780,340,34,45,-1.8546873026985,1,0.511278699999821,0.0452751000002536,0.339428100000077,0.0139737412527265,1
13,6,781,240,24,-45,-1.8546873026985,1,0.570087000000058,0.0408446000001277,0.236903500000153,0.0139737412527265,0
51,6,782,1000,100,-45,-1.8546873026985,-1,0.417715700000372,0.0509566999999151,1.00345379999999,0.0139737412527265,1
27,6,783,520,52,-45,-1.8546873026985,-1,0.850239400000646,0.0418717000002289,0.515781799999786,0.0139737412527265,1
17,6,784,320,32,-45,-1.8546873026985,-1,0.514961900000344,0.0456467000003613,0.319044799999574,0.0139737412527265,1
45,6,785,880,88,45,-1.8546873026985,1,0.463691299999482,0.0484778000000006,0.879999699999644,0.0139737412527265,1
37,6,786,720,72,45,-1.8546873026985,1,0.551855499999874,0.0429943999997704,0.716675599999689,0.0139737412527265,1
48,6,787,940,94,-45,-1.8546873026985,1,0.573354199999812,0.0415972000000693,0.936746800000037,0.0139737412527265,0
18,6,788,340,34,-45,-1.8546873026985,1,0.468317500000012,0.0434007000003476,0.336466999999175,0.0139737412527265,0
2,6,789,20,2,-45,-1.8546873026985,1,0.661741999999322,0.0399887000003218,0.0342919000004258,0.0139737412527265,0
35,6,790,680,68,-45,-1.8546873026985,-1,0.362834399999883,0.0466191999994408,0.678429300000062,0.0139737412527265,1
18,6,791,340,34,-45,-1.8546873026985,1,0.686057900000378,0.0469836000002033,0.33876919999966,0.0139737412527265,0
34,6,792,660,66,-45,-1.8546873026985,-1,0.401676800000132,0.0438287646229583,0.658441035377109,0.0139737412527265,1
30,6,793,580,58,45,-1.8546873026985,1,0.430545000000166,0.0456066999995528,0.579608099999859,0.0139737412527265,1
36,6,794,700,70,45,-1.8546873026985,1,0.539505400000053,0.0446605999995882,0.696049500000299,0.0139737412527265,1
42,6,795,820,82,45,-1.8546873026985,1,0.594443299999512,0.0510887999998886,0.826276699999653,0.0139737412527265,1
25,6,796,480,48,45,-1.8546873026985,1,0.63491619999968,0.0495184999999765,0.483310100000381,0.0139737412527265,1
47,6,797,920,92,45,-1.8546873026985,1,0.544399299999895,0.0428586999996696,0.916729100000339,0.0139737412527265,1
34,6,798,660,66,45,-1.8546873026985,1,0.544272500000261,0.0454464000004009,0.658415400000194,0.0139737412527265,1
51,6,799,1000,100,45,-1.8546873026985,1,0.514813700000559,0.049733699999706,1.00350510000044,0.0139737412527265,1
37,6,800,720,72,45,-1.8546873026985,1,0.611555999999837,0.0451593000007051,0.719232999999804,0.0139737412527265,1
49,6,801,960,96,45,-1.8546873026985,1,0.475018499999351,0.0497053999997661,0.963156499999968,0.0139737412527265,1
29,6,802,560,56,45,-1.8546873026985,-1,0.59543339999982,0.045071999999891,0.559492500000488,0.0139737412527265,0
28,6,803,540,54,45,-1.8546873026985,1,0.497111399999994,0.0498383999993166,0.54121860000032,0.0139737412527265,1
24,6,804,460,46,-45,-1.8546873026985,-1,0.509815800000069,0.0417853999997533,0.456536300000153,0.0139737412527265,1
47,6,805,920,92,-45,-1.8546873026985,-1,0.670676500000809,0.043899500000407,0.917011099999399,0.0139737412527265,1
22,6,806,420,42,-45,-1.8546873026985,-1,0.630686299999979,0.0404920999999376,0.416585599999962,0.0139737412527265,1
31,6,807,600,60,-45,-1.8546873026985,1,0.545200100000329,0.041935199999898,0.596579500000189,0.0139737412527265,0
40,6,808,780,78,45,-1.8546873026985,1,0.502619400000185,0.0451059000006353,0.779913700000179,0.0139737412527265,1
15,6,809,280,28,-45,-1.8546873026985,-1,0.67976230000022,0.0486043000000791,0.2795885000005,0.0139737412527265,1
6,6,810,100,10,-45,-1.8546873026985,-1,0.533181400000103,0.0504507000005106,0.104104299999562,0.0139737412527265,1
3,6,811,40,4,-45,-1.8546873026985,1,0.745764299999792,0.0500373000004402,0.0524869000000763,0.0139737412527265,0
26,6,812,500,50,45,-1.8546873026985,1,0.548931000000266,0.0493785999997272,0.505637600000227,0.0139737412527265,1
38,6,813,740,74,45,-1.8546873026985,-1,0.58921090000058,0.0400168999995003,0.746651899999961,0.0139737412527265,0
40,6,814,780,78,-45,-1.8546873026985,-1,0.65689890000067,0.049369100000149,0.7814742999999,0.0139737412527265,1
33,6,815,640,64,-45,-1.8546873026985,1,0.56069369999932,0.047777099999621,0.639447200000177,0.0139737412527265,0
14,6,816,260,26,45,-1.8546873026985,1,0.628427700000429,0.0505640999999741,0.264776700000766,0.0139737412527265,1
13,6,817,240,24,-45,-1.8546873026985,-1,0.481706599999598,0.04000139999971,0.246285199999875,0.0139737412527265,1
46,6,818,900,90,45,-1.8546873026985,1,0.481175599999915,0.0456513999997696,0.896747600000708,0.0139737412527265,1
9,6,819,160,16,45,-1.8546873026985,-1,0.552262600000176,0.0497809999997116,0.165481200000613,0.0139737412527265,0
44,6,820,860,86,45,-1.8546873026985,-1,0.636598300000514,0.0424320000001899,0.856931599999371,0.0139737412527265,0
1,6,821,0,0,-45,-1.8546873026985,1,0.708988000000318,0.0513078000003588,0.0239173999998457,0.0139737412527265,0
19,6,822,360,36,45,-1.8546873026985,1,0.522979899999882,0.0455611999996108,0.359204899999895,0.0139737412527265,1
45,6,823,880,88,45,-1.8546873026985,1,0.507839500000046,0.05090410000048,0.881072499999391,0.0139737412527265,1
47,6,824,920,92,45,-1.8546873026985,-1,1.04105379999964,0.0422780999997485,0.916667999999845,0.0139737412527265,0
25,6,825,480,48,45,-1.8546873026985,1,0.4591003000005,0.0403886999993119,0.476609800000006,0.0139737412527265,1
46,6,826,900,90,45,-1.8546873026985,1,0.547737700000653,0.0435418999995818,0.896904500000346,0.0139737412527265,1
16,6,827,300,30,-45,-1.8546873026985,1,0.938550799999575,0.0445118316974913,0.29716976830241,0.0139737412527265,0
48,6,828,940,94,-45,-1.8546873026985,-1,0.543358199999602,0.0402261999997791,0.936274499999854,0.0139737412527265,1
14,6,829,260,26,-45,-1.8546873026985,-1,0.52017160000014,0.0492279000000053,0.263488000000507,0.0139737412527265,1
4,6,830,60,6,-45,-1.8546873026985,-1,1.02324680000038,0.050890999999865,0.0619245999996565,0.0139737412527265,1
29,6,831,560,56,-45,-1.8546873026985,1,0.473216299999876,0.0501199999998789,0.564710100000411,0.0139737412527265,0
44,6,832,860,86,-45,-1.8546873026985,-1,0.987116500000411,0.0443319000005431,0.856748199999856,0.0139737412527265,1
43,6,833,840,84,45,-1.8546873026985,1,0.648092800000086,0.0485678000004555,0.839795799999592,0.0139737412527265,1
39,6,834,760,76,45,-1.8546873026985,1,0.537516099999266,0.0400304000004326,0.7664922999993,0.0139737412527265,1
48,6,835,940,94,-45,-1.8546873026985,-1,0.494048499999735,0.0497357999993255,0.944103000000723,0.0139737412527265,1
43,6,836,840,84,45,-1.8546873026985,1,0.496557200000098,0.0423129000000699,0.837058099999922,0.0139737412527265,1
49,6,837,960,96,-45,-1.8546873026985,-1,0.504165199999989,0.0426700999996683,0.957089800000176,0.0139737412527265,1
20,6,838,380,38,-45,-1.8546873026985,-1,0.482125200000155,0.049593000000641,0.3801655999996,0.0139737412527265,1
22,6,839,420,42,45,-1.8546873026985,1,0.502665899999556,0.0405306000002383,0.416551799999979,0.0139737412527265,1
11,6,840,200,20,-45,-1.8546873026985,-1,0.498281899999711,0.041228900000533,0.196400499999982,0.0139737412527265,1
28,6,841,540,54,45,-1.8546873026985,1,1.09488139999939,0.0454902000001312,0.539293499999985,0.0139737412527265,1
41,6,842,800,80,45,-1.8546873026985,1,0.575345000000198,0.0485140000000683,0.799988000000667,0.0139737412527265,1
8,6,843,140,14,-45,-1.8546873026985,-1,0.524308500000188,0.0447515999994721,0.136684099999911,0.0139737412527265,1
1,6,844,0,0,-45,-1.8546873026985,1,0.669584799999939,0.0501076000000467,0.0162286000004315,0.0139737412527265,0
26,6,845,500,50,-45,-1.8546873026985,1,0.741746400000011,0.0411309999999503,0.496805699999641,0.0139737412527265,0
7,6,846,120,12,-45,-1.8546873026985,-1,0.47849320000023,0.0445986000004268,0.116921499999989,0.0139737412527265,1
14,6,847,260,26,45,-1.8546873026985,-1,0.695307599999978,0.049563899999157,0.262970200000382,0.0139737412527265,0
13,6,848,240,24,-45,-1.8546873026985,-1,0.682743299999856,0.0409463999994841,0.236519600000065,0.0139737412527265,1
36,6,849,700,70,-45,-1.8546873026985,-1,0.670197899999948,0.0410576999993282,0.696683200000734,0.0139737412527265,1
50,6,850,980,98,-45,-1.8546873026985,1,0.99801269999989,0.041482100000394,0.976692100000037,0.0139737412527265,0
46,6,851,900,90,-45,-1.8546873026985,-1,0.474885199999335,0.0485672999993767,0.90025229999992,0.0139737412527265,1
21,6,852,400,40,45,-1.8546873026985,1,0.872726999999941,0.0425513000000137,0.396424600000501,0.0139737412527265,1
5,6,853,80,8,45,-1.8546873026985,-1,0.872844200000145,0.0400876000003336,0.0950456000000486,0.0139737412527265,0
6,6,854,100,10,-45,-1.8546873026985,-1,0.596642999999858,0.0420548000001872,0.0973393999993277,0.0139737412527265,1
41,6,855,800,80,45,-1.8546873026985,1,0.477148300000408,0.0492282000004707,0.801210800000263,0.0139737412527265,1
11,6,856,200,20,45,-1.8546873026985,1,0.49581709999984,0.0432137999996485,0.196480999999949,0.0139737412527265,1
35,6,857,680,68,-45,-1.8546873026985,-1,0.447513500000241,0.043036299999585,0.676982500000122,0.0139737412527265,1
41,6,858,800,80,-45,-1.8546873026985,-1,0.667998699999771,0.0505309999998644,0.801299800000379,0.0139737412527265,1
1,6,859,0,0,45,-1.8546873026985,1,0.514714599999934,0.0400440999992497,0.0214841000006345,0.0139737412527265,1
20,6,860,380,38,-45,-1.8546873026985,1,0.574345500000163,0.0407691000000341,0.376535100000183,0.0139737412527265,0
24,6,861,460,46,-45,-1.8546873026985,1,0.735066000000188,0.0508601000001363,0.461653800000022,0.0139737412527265,0
50,6,862,980,98,-45,-1.8546873026985,1,0.562464600000567,0.0444472999997743,0.976921899999979,0.0139737412527265,0
10,6,863,180,18,45,-1.8546873026985,1,0.641663299999891,0.0451179000001503,0.177416200000152,0.0139737412527265,1
9,6,864,160,16,45,-1.8546873026985,1,0.537969899999553,0.0413899999994101,0.156520100000307,0.0139737412527265,1
10,6,865,180,18,45,-1.8546873026985,-1,0.434408299999632,0.0445403000003353,0.176631199999974,0.0139737412527265,0
36,6,866,700,70,-45,-1.8546873026985,1,0.638153399999283,0.0411741999996593,0.696470700000646,0.0139737412527265,0
12,6,867,220,22,45,-1.8546873026985,1,0.734507899999699,0.040840699999535,0.216327600000113,0.0139737412527265,1
25,6,868,480,48,45,-1.8546873026985,-1,0.439161999999669,0.0429469000000609,0.478062099999988,0.0139737412527265,0
20,6,869,380,38,45,-1.8546873026985,1,0.514418699999624,0.0484557999998287,0.380877199999304,0.0139737412527265,1
10,6,870,180,18,-45,-1.8546873026985,-1,0.493540800000119,0.0478418000002421,0.178840499999751,0.0139737412527265,1
50,6,871,980,98,45,-1.8546873026985,1,0.542836000000534,0.0449958999997762,0.979718000000503,0.0139737412527265,1
3,6,872,40,4,45,-1.8546873026985,1,0.680551700000251,0.0400838999994448,0.0470994000006613,0.0139737412527265,1
4,6,873,60,6,-45,-1.8546873026985,-1,0.873025599999892,0.0400190000000293,0.0788618000005954,0.0139737412527265,1
12,6,874,220,22,45,-1.8546873026985,-1,0.985142100000303,0.045675399999709,0.217109400000481,0.0139737412527265,0
35,6,875,680,68,45,-1.8546873026985,1,0.449229199999536,0.0414889000003313,0.676738899999691,0.0139737412527265,1
8,6,876,140,14,-45,-1.8546873026985,1,0.637875100000201,0.0420233999993798,0.136258500000622,0.0139737412527265,0
