isi,block,trial,isi_ms,isi_frames,theta,log_cnt,resp,rt,stim_duration,blank_duration,cnt,correct
33,1,1,640,64,-45,-1.78318251666699,1,7.73928029998206,0.0265114837675355,0.634251016250346,0.0164746988006836,0
15,1,2,280,28,45,-1.78318251666699,1,1.6585479999776,0.0266219999757595,0.282636700023431,0.0164746988006836,1
17,1,3,320,32,-45,-1.78318251666699,-1,0.658241299970541,0.0269262000219896,0.322740699979477,0.0164746988006836,1
2,1,4,20,2,-45,-1.78318251666699,-1,0.709898899949621,0.0261844000197016,0.0161412000306882,0.0164746988006836,1
3,1,5,40,4,45,-1.78318251666699,-1,0.737456700007897,0.0263359000091441,0.0362877000006847,0.0164746988006836,0
36,1,6,700,70,45,-1.78318251666699,-1,0.780100200034212,0.026977600005921,0.696944100025576,0.0164746988006836,0
40,1,7,780,78,-45,-1.78318251666699,1,1.16382739995606,0.0268867000122555,0.777157599979546,0.0164746988006836,0
35,1,8,680,68,45,-1.78318251666699,1,1.03972519998206,0.0268472000025213,0.677017799986061,0.0164746988006836,1
49,1,9,960,96,45,-1.78318251666699,1,0.615723699971568,0.0270126000395976,0.95701640000334,0.0164746988006836,1
5,1,10,80,8,-45,-1.78318251666699,-1,1.70499650004786,0.0265720999450423,0.0767803000053391,0.0164746988006836,1
23,1,11,440,44,-45,-1.78318251666699,-1,0.847729800036177,0.0269082000013441,0.436984999978449,0.0164746988006836,1
43,1,12,840,84,45,-1.78318251666699,1,1.00734900002135,0.0270036000292748,0.836944099981338,0.0164746988006836,1
39,1,13,760,76,-45,-1.78318251666699,-1,0.655055099981837,0.0270524999941699,0.757306499988772,0.0164746988006836,1
42,1,14,820,82,45,-1.78318251666699,1,2.41947710001841,0.0269480000133626,0.816991899977438,0.0164746988006836,1
7,1,15,120,12,45,-1.78318251666699,1,1.24809670000104,0.0268596999812871,0.116877799970098,0.0164746988006836,1
18,1,16,340,34,45,-1.78318251666699,-1,0.804775199969299,0.0268511000322178,0.336207299958915,0.0164746988006836,0
40,1,17,780,78,45,-1.78318251666699,1,0.761644400015939,0.0268276000279002,0.779554100008681,0.0164746988006836,1
37,1,18,720,72,45,-1.78318251666699,-1,0.583151099970564,0.0269299999927171,0.717070200014859,0.0164746988006836,0
19,1,19,360,36,-45,-1.78318251666699,-1,0.944358600012492,0.0268279999727383,0.356922400009353,0.0164746988006836,1
31,1,20,600,60,45,-1.78318251666699,1,0.64034119999269,0.0268513999762945,0.597045900009107,0.0164746988006836,1
20,1,21,380,38,45,-1.78318251666699,-1,0.875923699990381,0.0269510999787599,0.376955199986696,0.0164746988006836,0
16,1,22,300,30,-45,-1.78318251666699,-1,1.48416430002544,0.026837199984584,0.296823100012261,0.0164746988006836,1
30,1,23,580,58,-45,-1.78318251666699,-1,0.867503199959174,0.027038200001698,0.576944600034039,0.0164746988006836,1
39,1,24,760,76,45,-1.78318251666699,-1,1.85523670003749,0.0270054999855347,0.757203600020148,0.0164746988006836,0
37,1,25,720,72,45,-1.78318251666699,1,2.58203059999505,0.028193200007081,0.71746220003115,0.0164746988006836,1
14,1,26,260,26,-45,-1.78318251666699,-1,0.819737199984957,0.0269652000279166,0.256968599976972,0.0164746988006836,1
10,1,27,180,18,-45,-1.78318251666699,-1,1.17208109999774,0.0269022000138648,0.177056499989703,0.0164746988006836,1
25,1,28,480,48,45,-1.78318251666699,1,1.01696609996725,0.0269012000062503,0.47694700001739,0.0164746988006836,1
44,1,29,860,86,45,-1.78318251666699,1,0.843462600023486,0.0270948000252247,0.857238099968527,0.0164746988006836,1
38,1,30,740,74,-45,-1.78318251666699,-1,0.838149400020484,0.0262560999835841,0.736209700000472,0.0164746988006836,1
19,1,31,360,36,45,-1.78318251666699,-1,1.1365533999633,0.0269150999956764,0.356942699989304,0.0164746988006836,0
50,1,32,980,98,-45,-1.78318251666699,-1,3.31575010000961,0.0269241000059992,0.977087200037204,0.0164746988006836,1
7,1,33,120,12,45,-1.78318251666699,-1,2.7512468000059,0.0267805999610573,0.11696260003373,0.0164746988006836,0
5,1,34,80,8,-45,-1.78318251666699,-1,1.65572569996584,0.0270263999700546,0.0767552999895997,0.0164746988006836,1
32,1,35,620,62,-45,-1.78318251666699,-1,1.11566169996513,0.0269057999830693,0.617119800008368,0.0164746988006836,1
32,1,36,620,62,-45,-1.78318251666699,-1,0.779942799999844,0.0269180000177585,0.616999100020621,0.0164746988006836,1
47,1,37,920,92,45,-1.78318251666699,1,1.4724384000292,0.026961499999743,0.917057099984959,0.0164746988006836,1
15,1,38,280,28,-45,-1.78318251666699,1,1.23133340000641,0.02715649997117,0.277098000049591,0.0164746988006836,0
6,1,39,100,10,-45,-1.78318251666699,1,2.61270030000014,0.0266792000038549,0.0967190000228584,0.0164746988006836,0
45,1,40,880,88,45,-1.78318251666699,1,3.59218919998966,0.0268286999780685,0.876952900027391,0.0164746988006836,1
27,1,41,520,52,-45,-1.78318251666699,-1,1.66370130004361,0.0270079000038095,0.51695339998696,0.0164746988006836,1
22,1,42,420,42,45,-1.78318251666699,1,1.36321979999775,0.0269974999828264,0.417085599969141,0.0164746988006836,1
43,1,43,840,84,-45,-1.78318251666699,-1,3.5201090000337,0.0268674999824725,0.836948100011796,0.0164746988006836,1
18,1,44,340,34,45,-1.78318251666699,-1,1.71685550000984,0.0271447999984957,0.337098399992101,0.0164746988006836,0
23,1,45,440,44,45,-1.78318251666699,1,1.42353530001128,0.0268746000365354,0.436995299998671,0.0164746988006836,1
44,1,46,860,86,45,-1.78318251666699,1,1.11593239998911,0.0268760999897495,0.857103799993638,0.0164746988006836,1
28,1,47,540,54,-45,-1.78318251666699,1,1.43633370002499,0.026891199988313,0.537107300013304,0.0164746988006836,0
2,1,48,20,2,-45,-1.78318251666699,1,1.90949190000538,0.0262420999933966,0.0161476000212133,0.0164746988006836,0
3,1,49,40,4,-45,-1.78318251666699,1,1.23308640002506,0.0263457999681123,0.0362971000140533,0.0164746988006836,0
10,1,50,180,18,45,-1.78318251666699,1,0.884786399954464,0.0268365999800153,0.176227600022685,0.0164746988006836,1
35,1,51,680,68,45,-1.78318251666699,-1,1.31123550003394,0.0269381999969482,0.677231000037864,0.0164746988006836,0
43,1,52,840,84,45,-1.78318251666699,1,2.30314360000193,0.0269893999793567,0.837059699988458,0.0164746988006836,1
23,1,53,440,44,45,-1.78318251666699,1,0.879112099995837,0.0270166999544017,0.436942000000272,0.0164746988006836,1
21,1,54,400,40,-45,-1.78318251666699,-1,2.10387980000814,0.0270879000308923,0.397039200004656,0.0164746988006836,1
1,1,55,0,0,-45,-1.78318251666699,-1,1.06017090001842,0.0261824000044726,0.00168439996195957,0.0164746988006836,1
46,1,56,900,90,45,-1.78318251666699,-1,1.93976649997057,0.0269150999956764,0.896894999954384,0.0164746988006836,0
34,1,57,660,66,45,-1.78318251666699,1,0.883836499997415,0.0270100999623537,0.657067499996629,0.0164746988006836,1
1,1,58,0,0,45,-1.78318251666699,1,1.73187469999539,0.026271499984432,0.00218780001159757,0.0164746988006836,1
5,1,59,80,8,45,-1.78318251666699,1,0.744202900037635,0.0267916000448167,0.0767261000000872,0.0164746988006836,1
35,1,60,680,68,45,-1.78318251666699,-1,0.751631099963561,0.0269154999987222,0.677529899985529,0.0164746988006836,0
9,1,61,160,16,-45,-1.78318251666699,1,1.73625570000149,0.0264932999853045,0.157075099996291,0.0164746988006836,0
29,1,62,560,56,-45,-1.78318251666699,1,2.21634420001647,0.026945199992042,0.556975200015586,0.0164746988006836,0
45,1,63,880,88,45,-1.78318251666699,1,1.12754920002772,0.0268665000330657,0.876978199987207,0.0164746988006836,1
13,1,64,240,24,45,-1.78318251666699,-1,3.67215420003049,0.0267741000279784,0.236973799997941,0.0164746988006836,0
9,1,65,160,16,45,-1.78318251666699,1,1.608218999987,0.0268535999930464,0.156955100013874,0.0164746988006836,1
48,1,66,940,94,45,-1.78318251666699,1,0.683656400011387,0.0268872999586165,0.937084700039122,0.0164746988006836,1
12,1,67,220,22,-45,-1.78318251666699,-1,0.763776600011624,0.0268193000229076,0.216942599974573,0.0164746988006836,1
33,1,68,640,64,-45,-1.78318251666699,-1,0.839821400004439,0.0268749999813735,0.637098800041713,0.0164746988006836,1
39,1,69,760,76,45,-1.78318251666699,1,0.68808039999567,0.0266353999613784,0.756970599992201,0.0164746988006836,1
17,1,70,320,32,45,-1.78318251666699,-1,1.14357329998165,0.0268920999951661,0.316970099986065,0.0164746988006836,0
11,1,71,200,20,45,-1.78318251666699,1,0.671618500025943,0.0270194999757223,0.197087200009264,0.0164746988006836,1
2,1,72,20,2,45,-1.78318251666699,-1,1.06184499996016,0.0261724999872968,0.0161050999886356,0.0164746988006836,0
1,1,73,0,0,45,-1.78318251666699,-1,1.17229950003093,0.0261833000113256,0.0017927999724634,0.0164746988006836,0
47,1,74,920,92,-45,-1.78318251666699,1,1.32782529998804,0.0269651000271551,0.916971799975727,0.0164746988006836,0
34,1,75,660,66,-45,-1.78318251666699,-1,0.643971499986947,0.0270644000265747,0.657153800013475,0.0164746988006836,1
20,1,76,380,38,-45,-1.78318251666699,-1,0.667425899999216,0.0268138999817893,0.376950000005309,0.0164746988006836,1
18,1,77,340,34,-45,-1.78318251666699,-1,0.547989400045481,0.0269124999758787,0.337124500016216,0.0164746988006836,1
22,1,78,420,42,-45,-1.78318251666699,-1,0.675572799984366,0.0271009000134654,0.417401299986523,0.0164746988006836,1
28,1,79,540,54,-45,-1.78318251666699,-1,0.523930299968924,0.0268815999734215,0.536911700037308,0.0164746988006836,1
45,1,80,880,88,-45,-1.78318251666699,-1,0.551660299999639,0.0270093999570236,0.876953700033482,0.0164746988006836,1
7,1,81,120,12,-45,-1.78318251666699,-1,0.81585090002045,0.0269013000070117,0.116961400024593,0.0164746988006836,1
15,1,82,280,28,-45,-1.78318251666699,-1,0.912537600030191,0.0269571999670006,0.277007800003048,0.0164746988006836,1
37,1,83,720,72,-45,-1.78318251666699,-1,0.743717100005597,0.0269747999846004,0.717110300029162,0.0164746988006836,1
42,1,84,820,82,-45,-1.78318251666699,1,0.835674500034656,0.0270173000171781,0.817266799975187,0.0164746988006836,0
46,1,85,900,90,45,-1.78318251666699,1,0.820406400016509,0.026910400018096,0.896943199972156,0.0164746988006836,1
40,1,86,780,78,-45,-1.78318251666699,-1,0.779636499995831,0.0269697999465279,0.777090800052974,0.0164746988006836,1
38,1,87,740,74,45,-1.78318251666699,-1,1.05929470004048,0.0269418000243604,0.737014399957843,0.0164746988006836,0
24,1,88,460,46,-45,-1.78318251666699,-1,0.812274999974761,0.0269162000040524,0.456956500012893,0.0164746988006836,1
25,1,89,480,48,45,-1.78318251666699,1,5.87949409999419,0.0268939000088722,0.477046000014525,0.0164746988006836,1
47,1,90,920,92,-45,-1.78318251666699,-1,1.0561814000248,0.0268977000378072,0.91698290000204,0.0164746988006836,1
8,1,91,140,14,-45,-1.78318251666699,-1,0.875694499991369,0.026734100014437,0.136862199986354,0.0164746988006836,1
11,1,92,200,20,45,-1.78318251666699,1,0.607802900020033,0.0271303000045009,0.196870799991302,0.0164746988006836,1
11,1,93,200,20,45,-1.78318251666699,1,0.624002799973823,0.0268862000084482,0.196968499978539,0.0164746988006836,1
8,1,94,140,14,45,-1.78318251666699,1,0.620358599990141,0.0265359000186436,0.136940700002015,0.0164746988006836,1
26,1,95,500,50,45,-1.78318251666699,-1,0.595318000006955,0.0269415000220761,0.497111800010316,0.0164746988006836,0
41,1,96,800,80,-45,-1.78318251666699,-1,0.631594800041057,0.0270542000071146,0.797130599967204,0.0164746988006836,1
16,1,97,300,30,45,-1.78318251666699,1,0.555485599965323,0.0269439000403509,0.296932799974456,0.0164746988006836,1
42,1,98,820,82,-45,-1.78318251666699,-1,0.595344399975147,0.0271868000272661,0.817258499970194,0.0164746988006836,1
24,1,99,460,46,45,-1.78318251666699,1,0.603815299982671,0.0270055999862961,0.456963300006464,0.0164746988006836,1
25,1,100,480,48,45,-1.78318251666699,1,1.12724979995983,0.0269199999747798,0.476952700002585,0.0164746988006836,1
4,1,101,60,6,-45,-1.78318251666699,-1,0.620276700006798,0.0265203000162728,0.0565672999946401,0.0164746988006836,1
14,1,102,260,26,45,-1.78318251666699,1,0.597179200034589,0.0267728000180796,0.256820399954449,0.0164746988006836,1
26,1,103,500,50,45,-1.78318251666699,1,0.900374600023497,0.0269455999950878,0.496963400044478,0.0164746988006836,1
4,1,104,60,6,-45,-1.78318251666699,1,1.18091759999515,0.026629599975422,0.0567513999994844,0.0164746988006836,0
48,1,105,940,94,45,-1.78318251666699,1,0.587938300042879,0.0268569000181742,0.936978899990208,0.0164746988006836,1
49,1,106,960,96,-45,-1.78318251666699,-1,0.552797999989707,0.0268942000111565,0.956754599988926,0.0164746988006836,1
6,1,107,100,10,-45,-1.78318251666699,1,1.13975410000421,0.0267308999900706,0.0967151999939233,0.0164746988006836,0
41,1,108,800,80,-45,-1.78318251666699,-1,0.519412399968132,0.0270429999800399,0.796978600032162,0.0164746988006836,1
50,1,109,980,98,45,-1.78318251666699,1,0.627380299963988,0.0269131999812089,0.977013399999123,0.0164746988006836,1
27,1,110,520,52,45,-1.78318251666699,1,0.608562700042967,0.0268354000290856,0.517051299975719,0.0164746988006836,1
32,1,111,620,62,-45,-1.78318251666699,1,0.603952599980403,0.0266532000387087,0.617107599973679,0.0164746988006836,0
19,1,112,360,36,-45,-1.78318251666699,-1,0.511383700009901,0.0269713000161573,0.357004499994218,0.0164746988006836,1
3,1,113,40,4,45,-1.78318251666699,1,1.2178442000295,0.0262139000114985,0.0360779999755323,0.0164746988006836,1
6,1,114,100,10,45,-1.78318251666699,-1,1.01189299998805,0.026720599969849,0.096941500029061,0.0164746988006836,0
48,1,115,940,94,45,-1.78318251666699,1,0.460110799991526,0.0268898999784142,0.937099099974148,0.0164746988006836,1
31,1,116,600,60,45,-1.78318251666699,1,0.863615999987815,0.0268899999791756,0.597031700017396,0.0164746988006836,1
8,1,117,140,14,-45,-1.78318251666699,-1,0.556408200005535,0.0268906999845058,0.13686540001072,0.0164746988006836,1
38,1,118,740,74,45,-1.78318251666699,1,0.500090399989858,0.0270107000251301,0.736975500010885,0.0164746988006836,1
44,1,119,860,86,-45,-1.78318251666699,-1,0.491761300014332,0.0269219999900088,0.857067900011316,0.0164746988006836,1
30,1,120,580,58,-45,-1.78318251666699,-1,0.628021900018211,0.0269232999999076,0.57708250003634,0.0164746988006836,1
17,1,121,320,32,45,-1.78318251666699,1,0.568639200006146,0.0269361999817193,0.316951900022104,0.0164746988006836,1
31,1,122,600,60,45,-1.78318251666699,1,0.398609399970155,0.0271871000295505,0.597397699952126,0.0164746988006836,1
29,1,123,560,56,45,-1.78318251666699,1,0.376612499996554,0.0269432000350207,0.556921000010334,0.0164746988006836,1
51,1,124,1000,100,45,-1.78318251666699,1,0.480336699984036,0.0269666999811307,0.997059100016486,0.0164746988006836,1
12,1,125,220,22,-45,-1.78318251666699,1,0.668331600027159,0.0267589000286534,0.216942799976096,0.0164746988006836,0
21,1,126,400,40,45,-1.78318251666699,1,1.33496190002188,0.0269140999880619,0.397212699986994,0.0164746988006836,1
33,1,127,640,64,45,-1.78318251666699,1,0.695848300005309,0.0270115999737754,0.6369485000032,0.0164746988006836,1
10,1,128,180,18,45,-1.78318251666699,1,0.675865299999714,0.0268075999920256,0.176821800007019,0.0164746988006836,1
26,1,129,500,50,45,-1.78318251666699,1,0.65978260000702,0.0268530999892391,0.497162099985871,0.0164746988006836,1
13,1,130,240,24,45,-1.78318251666699,1,0.759722600050736,0.0270125999813899,0.236991100013256,0.0164746988006836,1
9,1,131,160,16,-45,-1.78318251666699,1,0.615770099975634,0.0267651999602094,0.156869300000835,0.0164746988006836,0
49,1,132,960,96,-45,-1.78318251666699,1,0.552065399999265,0.0271133999922313,0.957073700032197,0.0164746988006836,0
4,1,133,60,6,-45,-1.78318251666699,1,1.261355500028,0.0265934999915771,0.0566080000135116,0.0164746988006836,0
22,1,134,420,42,45,-1.78318251666699,1,2.17911309999181,0.0269383999984711,0.41703559999587,0.0164746988006836,1
36,1,135,700,70,-45,-1.78318251666699,1,2.49120340001537,0.0270086000091396,0.696952000027522,0.0164746988006836,0
51,1,136,1000,100,-45,-1.78318251666699,-1,0.751528699998744,0.0268739000312053,0.996939999982715,0.0164746988006836,1
29,1,137,560,56,-45,-1.78318251666699,1,0.759119399997871,0.0269547000061721,0.556929000013042,0.0164746988006836,0
21,1,138,400,40,-45,-1.78318251666699,-1,0.519853900012095,0.0269048000336625,0.397095999971498,0.0164746988006836,1
24,1,139,460,46,-45,-1.78318251666699,-1,0.636201100016478,0.0270355000393465,0.45715079997899,0.0164746988006836,1
13,1,140,240,24,-45,-1.78318251666699,1,0.711648399999831,0.0268683999893256,0.236873499990907,0.0164746988006836,0
16,1,141,300,30,-45,-1.78318251666699,-1,1.00444069999503,0.0268028000136837,0.296788299980108,0.0164746988006836,1
14,1,142,260,26,-45,-1.78318251666699,-1,0.643930299964268,0.0268652999657206,0.257048700004816,0.0164746988006836,1
34,1,143,660,66,45,-1.78318251666699,1,0.803783599985763,0.0270203999825753,0.656986400019377,0.0164746988006836,1
12,1,144,220,22,-45,-1.78318251666699,-1,0.65235449996544,0.0268912999890745,0.217078100016806,0.0164746988006836,1
30,1,145,580,58,-45,-1.78318251666699,-1,0.659477700013667,0.0268431000295095,0.57715540000936,0.0164746988006836,1
20,1,146,380,38,45,-1.78318251666699,1,0.684760499978438,0.0266250999993645,0.37685010000132,0.0164746988006836,1
50,1,147,980,98,-45,-1.78318251666699,-1,0.643758599995635,0.0268164000008255,0.977255899982993,0.0164746988006836,1
51,1,148,1000,100,45,-1.78318251666699,1,0.607518500008155,0.0269831999903545,0.997092100034934,0.0164746988006836,1
41,1,149,800,80,-45,-1.78318251666699,1,0.567839300027117,0.0268630000064149,0.796946800022852,0.0164746988006836,0
46,1,150,900,90,45,-1.78318251666699,1,0.627826799987815,0.0267352999653667,0.897224400017876,0.0164746988006836,1
27,1,151,520,52,45,-1.78318251666699,1,0.767714500019792,0.0272887999890372,0.517082499980461,0.0164746988006836,1
28,1,152,540,54,45,-1.78318251666699,1,0.523938499973156,0.0268330000108108,0.537198599951807,0.0164746988006836,1
36,1,153,700,70,45,-1.78318251666699,-1,2.41172009997535,0.0269986999919638,0.697034400014672,0.0164746988006836,0
4,2,154,60,6,45,-1.78318251666699,1,0.82884859998012,0.026745299983304,0.0568178000394255,0.0164746988006836,1
51,2,155,1000,100,-45,-1.78318251666699,-1,1.02383510000072,0.0269552000099793,0.997134600009304,0.0164746988006836,1
36,2,156,700,70,-45,-1.78318251666699,1,0.587980399955995,0.0270365999895148,0.697182000032626,0.0164746988006836,0
32,2,157,620,62,45,-1.78318251666699,1,0.971502000000328,0.0269913999945857,0.617147399985697,0.0164746988006836,1
41,2,158,800,80,-45,-1.78318251666699,1,1.20777540002018,0.0269306999980472,0.79726349998964,0.0164746988006836,0
26,2,159,500,50,45,-1.78318251666699,1,0.804001400014386,0.027321099943947,0.497200400044676,0.0164746988006836,1
41,2,160,800,80,-45,-1.78318251666699,1,1.127526199969,0.0271109000314027,0.797211600001901,0.0164746988006836,0
14,2,161,260,26,45,-1.78318251666699,1,0.579451000026893,0.0270829999935813,0.257177099992987,0.0164746988006836,1
37,2,162,720,72,-45,-1.78318251666699,1,0.599868800025433,0.0264333999948576,0.717219599988312,0.0164746988006836,0
7,2,163,120,12,-45,-1.78318251666699,-1,1.07221690000733,0.0267566000111401,0.116889700002503,0.0164746988006836,1
19,2,164,360,36,-45,-1.78318251666699,-1,0.704527499969117,0.0270137999905273,0.356892700016033,0.0164746988006836,1
38,2,165,740,74,-45,-1.78318251666699,-1,0.562432600010652,0.0270142999943346,0.737678799952846,0.0164746988006836,1
23,2,166,440,44,45,-1.78318251666699,1,0.688464600010775,0.0266618999885395,0.437087199999951,0.0164746988006836,1
1,2,167,0,0,45,-1.78318251666699,-1,0.723354400019161,0.0262625000323169,0.00167709996458143,0.0164746988006836,0
36,2,168,700,70,-45,-1.78318251666699,-1,0.556466800044291,0.0266534000402316,0.697073699964676,0.0164746988006836,1
26,2,169,500,50,-45,-1.78318251666699,-1,0.835849900031462,0.0271221000002697,0.49696869996842,0.0164746988006836,1
42,2,170,820,82,-45,-1.78318251666699,-1,0.484442799992394,0.0267664999701083,0.817008200043347,0.0164746988006836,1
22,2,171,420,42,-45,-1.78318251666699,-1,0.532334899995476,0.0270307000027969,0.416988299984951,0.0164746988006836,1
25,2,172,480,48,-45,-1.78318251666699,-1,1.09576340002241,0.0269634999567643,0.476954800018575,0.0164746988006836,1
33,2,173,640,64,-45,-1.78318251666699,1,0.68089359998703,0.0266257000039332,0.636373099987395,0.0164746988006836,0
51,2,174,1000,100,45,-1.78318251666699,1,0.959377399994992,0.0270774000091478,0.997066399955656,0.0164746988006836,1
10,2,175,180,18,-45,-1.78318251666699,-1,1.78008820000105,0.0269590000389144,0.176826199982315,0.0164746988006836,1
5,2,176,80,8,45,-1.78318251666699,-1,0.664278700016439,0.0266309999860823,0.0767275000107475,0.0164746988006836,0
2,2,177,20,2,-45,-1.78318251666699,-1,0.741827100049704,0.0262407999834977,0.0161118000396527,0.0164746988006836,1
16,2,178,300,30,-45,-1.78318251666699,1,0.843782699957956,0.0269795000203885,0.296951199998148,0.0164746988006836,0
34,2,179,660,66,-45,-1.78318251666699,1,0.803386599989608,0.0270342000294477,0.656963099958375,0.0164746988006836,0
23,2,180,440,44,-45,-1.78318251666699,-1,0.591319400002249,0.026952899992466,0.437084500037599,0.0164746988006836,1
50,2,181,980,98,-45,-1.78318251666699,-1,0.707272799976636,0.0270313000073656,0.977047699969262,0.0164746988006836,1
44,2,182,860,86,45,-1.78318251666699,1,0.93991289997939,0.0270095000159927,0.857230399968103,0.0164746988006836,1
43,2,183,840,84,-45,-1.78318251666699,1,0.593057599966414,0.0267407999490388,0.836614600033499,0.0164746988006836,0
48,2,184,940,94,-45,-1.78318251666699,-1,0.491841399983969,0.026976499997545,0.93697159999283,0.0164746988006836,1
7,2,185,120,12,-45,-1.78318251666699,-1,0.736343499971554,0.026710300007835,0.116447900014464,0.0164746988006836,1
17,2,186,320,32,-45,-1.78318251666699,-1,0.568679300020449,0.0268065999844112,0.316818699997384,0.0164746988006836,1
6,2,187,100,10,45,-1.78318251666699,1,0.676259399973787,0.0267891999683343,0.096789900038857,0.0164746988006836,1
24,2,188,460,46,45,-1.78318251666699,-1,0.52426390000619,0.0268727000220679,0.457055100006983,0.0164746988006836,0
29,2,189,560,56,45,-1.78318251666699,1,0.855596199980937,0.0269893999793567,0.557341100007761,0.0164746988006836,1
15,2,190,280,28,45,-1.78318251666699,-1,3.02386250003474,0.0268460999941453,0.277085200010333,0.0164746988006836,0
14,2,191,260,26,45,-1.78318251666699,1,1.28423599997768,0.026793800003361,0.256848799996078,0.0164746988006836,1
13,2,192,240,24,45,-1.78318251666699,1,0.647488699993119,0.0270389000070281,0.237145599967334,0.0164746988006836,1
46,2,193,900,90,-45,-1.78318251666699,-1,0.596162099973299,0.0269778000074439,0.89705229998799,0.0164746988006836,1
28,2,194,540,54,45,-1.78318251666699,1,0.58814219996566,0.0269892999785952,0.537078100023791,0.0164746988006836,1
3,2,195,40,4,-45,-1.78318251666699,-1,0.609766699955799,0.0263288000132889,0.0362511999555863,0.0164746988006836,1
29,2,196,560,56,-45,-1.78318251666699,1,0.568040599988308,0.0269045000313781,0.557187300000805,0.0164746988006836,0
49,2,197,960,96,-45,-1.78318251666699,-1,0.566662999975961,0.0270473000127822,0.957378000020981,0.0164746988006836,1
48,2,198,940,94,-45,-1.78318251666699,-1,0.747446800000034,0.0269955999683589,0.937063599994872,0.0164746988006836,1
8,2,199,140,14,45,-1.78318251666699,-1,2.1245643000002,0.0267129000276327,0.136846199980937,0.0164746988006836,0
39,2,200,760,76,45,-1.78318251666699,1,0.847229700011667,0.0270470000104979,0.757030499982648,0.0164746988006836,1
6,2,201,100,10,-45,-1.78318251666699,-1,0.580215299967676,0.0266903999727219,0.0970308000105433,0.0164746988006836,1
22,2,202,420,42,45,-1.78318251666699,1,0.548494600050617,0.0268876000191085,0.41688289999729,0.0164746988006836,1
31,2,203,600,60,45,-1.78318251666699,1,2.03141890000552,0.0269904999877326,0.597084200009704,0.0164746988006836,1
35,2,204,680,68,-45,-1.78318251666699,-1,1.32919240003685,0.0260199999902397,0.676400399999693,0.0164746988006836,1
11,2,205,200,20,45,-1.78318251666699,1,0.672225399990566,0.0268603999866173,0.196851799963042,0.0164746988006836,1
2,2,206,20,2,-45,-1.78318251666699,-1,1.6368996000383,0.0261937999748625,0.0160866000223905,0.0164746988006836,1
4,2,207,60,6,45,-1.78318251666699,-1,1.72389590000967,0.0266980000305921,0.0566722999792546,0.0164746988006836,0
34,2,208,660,66,-45,-1.78318251666699,1,1.79510669998126,0.0270528999972157,0.656959899992216,0.0164746988006836,0
13,2,209,240,24,45,-1.78318251666699,1,0.583488400036003,0.0269238000037149,0.2373664000188,0.0164746988006836,1
22,2,210,420,42,-45,-1.78318251666699,-1,0.515604600019287,0.0270820999867283,0.417253300023731,0.0164746988006836,1
24,2,211,460,46,-45,-1.78318251666699,1,1.03580310003599,0.0269182000192814,0.457299199944828,0.0164746988006836,0
44,2,212,860,86,45,-1.78318251666699,1,1.16541689995211,0.0263339999946766,0.856223899987526,0.0164746988006836,1
47,2,213,920,92,-45,-1.78318251666699,-1,3.21689559996594,0.0267019000020809,0.916876600007527,0.0164746988006836,1
21,2,214,400,40,-45,-1.78318251666699,-1,1.91132659994764,0.0270489000249654,0.397268700005952,0.0164746988006836,1
41,2,215,800,80,45,-1.78318251666699,1,1.70334230002481,0.0269141999888234,0.79711079999106,0.0164746988006836,1
35,2,216,680,68,-45,-1.78318251666699,-1,0.719801300030667,0.0270080999471247,0.676942600053735,0.0164746988006836,1
8,2,217,140,14,-45,-1.78318251666699,-1,0.636572599993087,0.0268707000068389,0.136838399979752,0.0164746988006836,1
43,2,218,840,84,45,-1.78318251666699,1,0.864199900010135,0.0269357000361197,0.836961399996653,0.0164746988006836,1
51,2,219,1000,100,45,-1.78318251666699,1,0.57621620001737,0.0269092000089586,0.997076299972832,0.0164746988006836,1
20,2,220,380,38,-45,-1.78318251666699,-1,0.507953200023621,0.026814499986358,0.376966300013009,0.0164746988006836,1
27,2,221,520,52,-45,-1.78318251666699,-1,0.606305699970108,0.0268517000367865,0.51703579997411,0.0164746988006836,1
13,2,222,240,24,-45,-1.78318251666699,1,1.01516209996771,0.0270540000055917,0.237099299964029,0.0164746988006836,0
33,2,223,640,64,-45,-1.78318251666699,-1,0.487345600035042,0.0269469000049867,0.637084899994079,0.0164746988006836,1
39,2,224,760,76,45,-1.78318251666699,1,0.49483959999634,0.0270906999940053,0.757245999993756,0.0164746988006836,1
50,2,225,980,98,45,-1.78318251666699,1,0.803687000006903,0.0270307000027969,0.977075500006322,0.0164746988006836,1
48,2,226,940,94,45,-1.78318251666699,1,1.08483429998159,0.0268818000331521,0.937010299996473,0.0164746988006836,1
11,2,227,200,20,45,-1.78318251666699,1,0.656073799997102,0.0268101000110619,0.196849899948575,0.0164746988006836,1
9,2,228,160,16,-45,-1.78318251666699,-1,0.567834599991329,0.0271085000131279,0.156822199991439,0.0164746988006836,1
37,2,229,720,72,45,-1.78318251666699,-1,1.00039090000791,0.0269325999543071,0.717088200035505,0.0164746988006836,0
21,2,230,400,40,45,-1.78318251666699,-1,0.55257309996523,0.0261746000032872,0.396894000004977,0.0164746988006836,0
15,2,231,280,28,45,-1.78318251666699,1,0.784297999984119,0.0268900999799371,0.276901000004727,0.0164746988006836,1
10,2,232,180,18,45,-1.78318251666699,1,1.20412060001399,0.0268228999921121,0.176845700014383,0.0164746988006836,1
29,2,233,560,56,45,-1.78318251666699,1,0.839291899988893,0.0270274999784306,0.557017799990717,0.0164746988006836,1
20,2,234,380,38,-45,-1.78318251666699,-1,0.588436099991668,0.0267993000452407,0.37699119996978,0.0164746988006836,1
40,2,235,780,78,-45,-1.78318251666699,1,1.21181469998555,0.0271416999748908,0.77726620004978,0.0164746988006836,0
46,2,236,900,90,45,-1.78318251666699,1,0.579384699987713,0.0270591999869794,0.897140000015497,0.0164746988006836,1
27,2,237,520,52,45,-1.78318251666699,1,0.511679599992931,0.0269675999879837,0.517096200026572,0.0164746988006836,1
50,2,238,980,98,45,-1.78318251666699,-1,1.28325579996454,0.0270445999922231,0.976948300027288,0.0164746988006836,0
38,2,239,740,74,45,-1.78318251666699,1,0.532517000043299,0.0270095000159927,0.73695749999024,0.0164746988006836,1
17,2,240,320,32,-45,-1.78318251666699,1,0.552160800027195,0.0268237999989651,0.317014200030826,0.0164746988006836,0
12,2,241,220,22,45,-1.78318251666699,1,1.25998410000466,0.026742399961222,0.216949600027874,0.0164746988006836,1
32,2,242,620,62,-45,-1.78318251666699,-1,0.539651300001424,0.0270398000138812,0.617007700027898,0.0164746988006836,1
43,2,243,840,84,45,-1.78318251666699,1,0.655721999995876,0.0268384999944828,0.837022199993953,0.0164746988006836,1
28,2,244,540,54,-45,-1.78318251666699,-1,0.461014400003478,0.0262632999802008,0.536943999992218,0.0164746988006836,1
30,2,245,580,58,-45,-1.78318251666699,-1,1.15623929997673,0.0269116999697872,0.576981700025499,0.0164746988006836,1
31,2,246,600,60,45,-1.78318251666699,1,0.8318711000029,0.0270157000049949,0.59699879999971,0.0164746988006836,1
9,2,247,160,16,45,-1.78318251666699,1,1.2404498999822,0.0268397000036202,0.156815499998629,0.0164746988006836,1
7,2,248,120,12,45,-1.78318251666699,1,0.606577099999413,0.0270678999950178,0.1170139000169,0.0164746988006836,1
20,2,249,380,38,-45,-1.78318251666699,1,0.62029240000993,0.0267713000066578,0.376816799980588,0.0164746988006836,0
1,2,250,0,0,-45,-1.78318251666699,-1,0.643183099979069,0.026387199992314,0.00185480003710836,0.0164746988006836,1
18,2,251,340,34,45,-1.78318251666699,1,0.723869199980982,0.0269971999805421,0.33710320002865,0.0164746988006836,1
24,2,252,460,46,45,-1.78318251666699,1,0.523756099981256,0.0269666000385769,0.457004399970174,0.0164746988006836,1
21,2,253,400,40,-45,-1.78318251666699,-1,0.471825099957641,0.0269893000368029,0.39696569996886,0.0164746988006836,1
11,2,254,200,20,-45,-1.78318251666699,-1,0.768223299994133,0.0268692999961786,0.197033100004774,0.0164746988006836,1
5,2,255,80,8,-45,-1.78318251666699,-1,0.935152699996252,0.0267529999837279,0.0767837000312284,0.0164746988006836,1
16,2,256,300,30,-45,-1.78318251666699,-1,0.780252899974585,0.0269466000027023,0.29700469999807,0.0164746988006836,1
3,2,257,40,4,45,-1.78318251666699,1,0.60885540000163,0.0266423000139184,0.0363132000202313,0.0164746988006836,1
45,2,258,880,88,45,-1.78318251666699,1,0.87260130001232,0.0268862000084482,0.876407100004144,0.0164746988006836,1
28,2,259,540,54,45,-1.78318251666699,-1,1.38627700001234,0.0269733000313863,0.537014600005932,0.0164746988006836,0
5,2,260,80,8,45,-1.78318251666699,1,0.984403799986467,0.0266541999881156,0.076754699985031,0.0164746988006836,1
34,2,261,660,66,-45,-1.78318251666699,-1,0.483444599958602,0.0269154999987222,0.657166699995287,0.0164746988006836,1
8,2,262,140,14,-45,-1.78318251666699,-1,0.492204800015315,0.0267968999687582,0.136839300044812,0.0164746988006836,1
38,2,263,740,74,45,-1.78318251666699,1,0.499673100013752,0.0268814000301063,0.736985499970615,0.0164746988006836,1
30,2,264,580,58,-45,-1.78318251666699,1,0.579769100004341,0.026960399991367,0.576988899963908,0.0164746988006836,0
10,2,265,180,18,45,-1.78318251666699,1,0.675739600032102,0.0269765999983065,0.176970899978187,0.0164746988006836,1
1,2,266,0,0,45,-1.78318251666699,-1,0.531996999983676,0.0262432000017725,0.00235249998513609,0.0164746988006836,0
25,2,267,480,48,45,-1.78318251666699,-1,0.584480499965139,0.0269811999751255,0.47703220002586,0.0164746988006836,0
47,2,268,920,92,45,-1.78318251666699,1,0.960294499993324,0.026850700029172,0.916973899991717,0.0164746988006836,1
49,2,269,960,96,-45,-1.78318251666699,1,0.471627300023101,0.0270177000202239,0.95718670001952,0.0164746988006836,0
42,2,270,820,82,45,-1.78318251666699,1,0.515704300021753,0.0269584999768995,0.816946500039194,0.0164746988006836,1
45,2,271,880,88,45,-1.78318251666699,1,0.535916499968152,0.0270837999996729,0.877181499963626,0.0164746988006836,1
37,2,272,720,72,-45,-1.78318251666699,-1,0.871594300027937,0.0270258999662474,0.71695810003439,0.0164746988006836,1
6,2,273,100,10,-45,-1.78318251666699,-1,0.628993900027126,0.0267991000437178,0.0967655999702401,0.0164746988006836,1
4,2,274,60,6,-45,-1.78318251666699,-1,0.796874399995431,0.0266853999928571,0.056899200018961,0.0164746988006836,1
27,2,275,520,52,-45,-1.78318251666699,-1,0.543785000045318,0.0270115999737754,0.516990999982227,0.0164746988006836,1
31,2,276,600,60,45,-1.78318251666699,1,0.959320199966896,0.0269321999512613,0.59700020001037,0.0164746988006836,1
12,2,277,220,22,45,-1.78318251666699,1,0.684592799982056,0.0268586000311188,0.216818399960175,0.0164746988006836,1
35,2,278,680,68,-45,-1.78318251666699,1,0.847803800017573,0.0270024000201374,0.677050800004508,0.0164746988006836,0
32,2,279,620,62,-45,-1.78318251666699,-1,0.490958300011698,0.0270794000243768,0.617274399963208,0.0164746988006836,1
45,2,280,880,88,-45,-1.78318251666699,-1,0.663412699999753,0.0270228000008501,0.877081000013277,0.0164746988006836,1
40,2,281,780,78,45,-1.78318251666699,-1,2.39629319997039,0.027003200026229,0.776934699970298,0.0164746988006836,0
23,2,282,440,44,45,-1.78318251666699,1,0.625649199995678,0.0263887000037357,0.436334099969827,0.0164746988006836,1
16,2,283,300,30,45,-1.78318251666699,1,0.539197999984026,0.0273588000563905,0.297223299974576,0.0164746988006836,1
2,2,284,20,2,45,-1.78318251666699,1,1.2059547000099,0.0262645999900997,0.016152800002601,0.0164746988006836,1
49,2,285,960,96,45,-1.78318251666699,-1,0.583772699988913,0.0268223999883048,0.957116600009613,0.0164746988006836,0
17,2,286,320,32,-45,-1.78318251666699,-1,1.24017669999739,0.0269026000169106,0.316954599984456,0.0164746988006836,1
46,2,287,900,90,-45,-1.78318251666699,-1,0.627988299995195,0.0270263000275008,0.897010700020473,0.0164746988006836,1
30,2,288,580,58,45,-1.78318251666699,-1,0.483815599989612,0.026947200007271,0.576950800023042,0.0164746988006836,0
15,2,289,280,28,45,-1.78318251666699,1,0.655774800048675,0.0268278000294231,0.276884599996265,0.0164746988006836,1
3,2,290,40,4,-45,-1.78318251666699,1,0.961959900043439,0.0263747000135481,0.0361307000275701,0.0164746988006836,0
25,2,291,480,48,-45,-1.78318251666699,-1,0.583369200001471,0.0267806999618188,0.477089799998794,0.0164746988006836,1
9,2,292,160,16,-45,-1.78318251666699,-1,0.648151700035669,0.0263878999976441,0.156918700027745,0.0164746988006836,1
18,2,293,340,34,-45,-1.78318251666699,-1,0.756520700000692,0.0268395000020973,0.337092700006906,0.0164746988006836,1
18,2,294,340,34,45,-1.78318251666699,-1,0.61247110000113,0.0268220999860205,0.337028199981432,0.0164746988006836,0
19,2,295,360,36,45,-1.78318251666699,1,0.608501800044905,0.0267236999934539,0.356645599997137,0.0164746988006836,1
40,2,296,780,78,45,-1.78318251666699,-1,1.13257049996173,0.0268666999763809,0.776970400009304,0.0164746988006836,0
36,2,297,700,70,45,-1.78318251666699,-1,0.603824999998324,0.0269163000048138,0.696999700041488,0.0164746988006836,0
12,2,298,220,22,-45,-1.78318251666699,-1,0.813509100000374,0.026606899977196,0.216325500048697,0.0164746988006836,1
47,2,299,920,92,45,-1.78318251666699,1,0.640911999973468,0.0268217999837361,0.916840900026727,0.0164746988006836,1
14,2,300,260,26,-45,-1.78318251666699,1,1.10881979996338,0.0267678999807686,0.2568846999784,0.0164746988006836,0
44,2,301,860,86,45,-1.78318251666699,1,0.604244299989659,0.0269611999974586,0.857016099966131,0.0164746988006836,1
42,2,302,820,82,45,-1.78318251666699,1,1.45982200000435,0.0269567999639548,0.817241800017655,0.0164746988006836,1
26,2,303,500,50,-45,-1.78318251666699,1,0.883624200010672,0.0271522999973968,0.497098799969535,0.0164746988006836,0
19,2,304,360,36,-45,-1.78318251666699,-1,0.687957099988125,0.0269266999675892,0.356957900046837,0.0164746988006836,1
33,2,305,640,64,45,-1.78318251666699,1,0.951688200002536,0.0269172000116669,0.636989000020549,0.0164746988006836,1
39,2,306,760,76,-45,-1.78318251666699,-1,0.864247799967416,0.02693970000837,0.756955899996683,0.0164746988006836,1
4,3,307,60,6,-45,-1.78318251666699,-1,0.780574299977161,0.0266489000059664,0.0566606000065804,0.0164746988006836,1
50,3,308,980,98,-45,-1.78318251666699,-1,0.516147399961483,0.0269184000208043,0.976811899978202,0.0164746988006836,1
2,3,309,20,2,45,-1.78318251666699,1,0.613637699978426,0.0261716999812052,0.0161483999690972,0.0164746988006836,1
37,3,310,720,72,-45,-1.78318251666699,-1,0.456188099982683,0.0270362999872304,0.716988099971786,0.0164746988006836,1
21,3,311,400,40,-45,-1.78318251666699,1,0.551720999996178,0.0275294000166468,0.397263100021519,0.0164746988006836,0
11,3,312,200,20,45,-1.78318251666699,1,0.64008520002244,0.0270611000014469,0.19713269994827,0.0164746988006836,1
8,3,313,140,14,-45,-1.78318251666699,-1,0.540428599982988,0.0268646000185981,0.136794699996244,0.0164746988006836,1
45,3,314,880,88,45,-1.78318251666699,1,0.519581099972129,0.0269532999955118,0.877003200002946,0.0164746988006836,1
37,3,315,720,72,45,-1.78318251666699,-1,0.455518300004769,0.0271550000179559,0.71716939995531,0.0164746988006836,0
24,3,316,460,46,-45,-1.78318251666699,1,0.571033800020814,0.0271178999682888,0.457531400024891,0.0164746988006836,0
44,3,317,860,86,45,-1.78318251666699,1,0.619948400009889,0.0270181000232697,0.857302499993239,0.0164746988006836,1
36,3,318,700,70,45,-1.78318251666699,1,0.618321499961894,0.0283206999883987,0.697205399977975,0.0164746988006836,1
3,3,319,40,4,-45,-1.78318251666699,-1,0.593621700012591,0.0263095999835059,0.0362820000154898,0.0164746988006836,1
20,3,320,380,38,45,-1.78318251666699,1,0.555823400034569,0.0270227999426425,0.376954100036528,0.0164746988006836,1
9,3,321,160,16,45,-1.78318251666699,1,0.824636799981818,0.0266616999870166,0.15683390002232,0.0164746988006836,1
28,3,322,540,54,-45,-1.78318251666699,-1,0.572120199969504,0.0270390000077896,0.537014600005932,0.0164746988006836,1
20,3,323,380,38,45,-1.78318251666699,1,0.50824090000242,0.0267927999957465,0.376986999996006,0.0164746988006836,1
14,3,324,260,26,-45,-1.78318251666699,-1,1.28451959998347,0.0268085999996401,0.256827100005466,0.0164746988006836,1
47,3,325,920,92,-45,-1.78318251666699,-1,1.47195179999107,0.0269304999965243,0.917133199982345,0.0164746988006836,1
8,3,326,140,14,45,-1.78318251666699,-1,0.940077700011898,0.0269211000413634,0.136915399983991,0.0164746988006836,0
43,3,327,840,84,45,-1.78318251666699,1,0.559481700009201,0.0270321000134572,0.837085099949036,0.0164746988006836,1
46,3,328,900,90,-45,-1.78318251666699,1,1.85993620002409,0.0269666000385769,0.897158299980219,0.0164746988006836,0
5,3,329,80,8,45,-1.78318251666699,-1,1.38502390001668,0.0262655999977142,0.0767344000050798,0.0164746988006836,0
41,3,330,800,80,-45,-1.78318251666699,-1,0.553169600025285,0.0267685999860987,0.796413799980655,0.0164746988006836,1
28,3,331,540,54,-45,-1.78318251666699,-1,0.524211400013883,0.0269742999807931,0.537116299965419,0.0164746988006836,1
27,3,332,520,52,-45,-1.78318251666699,1,0.751496599987149,0.027059999993071,0.517110100015998,0.0164746988006836,0
23,3,333,440,44,-45,-1.78318251666699,-1,0.768071500002407,0.0268650000216439,0.43700129998615,0.0164746988006836,1
19,3,334,360,36,-45,-1.78318251666699,1,1.00817270000698,0.0267464999924414,0.35707630001707,0.0164746988006836,0
3,3,335,40,4,-45,-1.78318251666699,-1,1.55265789997065,0.0264065000228584,0.0362742999568582,0.0164746988006836,1
28,3,336,540,54,45,-1.78318251666699,1,0.923803800018504,0.0269702000077814,0.536940900026821,0.0164746988006836,1
32,3,337,620,62,45,-1.78318251666699,-1,0.971236000012141,0.0268941000103951,0.617120699957013,0.0164746988006836,0
1,3,338,0,0,45,-1.78318251666699,1,0.820076200005133,0.0262719999882393,0.00208790000760928,0.0164746988006836,1
49,3,339,960,96,45,-1.78318251666699,1,0.871826999995392,0.0268794000148773,0.956982199975755,0.0164746988006836,1
10,3,340,180,18,45,-1.78318251666699,1,0.628330999985337,0.0267297999816947,0.17679490003502,0.0164746988006836,1
31,3,341,600,60,-45,-1.78318251666699,1,0.927524900005665,0.0269781000097282,0.596941000025254,0.0164746988006836,0
35,3,342,680,68,45,-1.78318251666699,1,0.975926399987657,0.0271152000059374,0.677290999970865,0.0164746988006836,1
4,3,343,60,6,-45,-1.78318251666699,-1,0.540487799968105,0.0268191000213847,0.056730400014203,0.0164746988006836,1
18,3,344,340,34,-45,-1.78318251666699,1,0.499178299971391,0.0270825000479817,0.337115100002848,0.0164746988006836,0
18,3,345,340,34,45,-1.78318251666699,1,0.547901499958243,0.0268035999615677,0.336900800000876,0.0164746988006836,1
11,3,346,200,20,45,-1.78318251666699,-1,0.656619200017303,0.0267899000318721,0.196275099995546,0.0164746988006836,0
46,3,347,900,90,-45,-1.78318251666699,-1,0.579582299978938,0.0268389999982901,0.897139300010167,0.0164746988006836,1
5,3,348,80,8,-45,-1.78318251666699,-1,0.617363299999852,0.0262796999886632,0.0764251000364311,0.0164746988006836,1
25,3,349,480,48,-45,-1.78318251666699,-1,0.999755700002424,0.0269678999902681,0.477188399992883,0.0164746988006836,1
24,3,350,460,46,-45,-1.78318251666699,-1,0.507565599982627,0.0269202000345103,0.457027599972207,0.0164746988006836,1
38,3,351,740,74,-45,-1.78318251666699,-1,0.67533659999026,0.0271099000237882,0.737222400028259,0.0164746988006836,1
48,3,352,940,94,-45,-1.78318251666699,1,1.03571280004689,0.0270209000445902,0.937027100007981,0.0164746988006836,0
30,3,353,580,58,-45,-1.78318251666699,1,0.563619399967138,0.0270851000095718,0.577227400033735,0.0164746988006836,0
30,3,354,580,58,-45,-1.78318251666699,-1,0.627853299956769,0.0268515999778174,0.577017800009344,0.0164746988006836,1
33,3,355,640,64,-45,-1.78318251666699,-1,0.551822200010065,0.0268461999949068,0.637026100012008,0.0164746988006836,1
7,3,356,120,12,-45,-1.78318251666699,-1,0.576624800043646,0.026736100029666,0.116841399983969,0.0164746988006836,1
46,3,357,900,90,45,-1.78318251666699,1,0.579859099991154,0.0269146999926306,0.897102000017185,0.0164746988006836,1
1,3,358,0,0,-45,-1.78318251666699,1,0.963889300008304,0.026151199999731,0.00209889997495338,0.0164746988006836,0
22,3,359,420,42,-45,-1.78318251666699,-1,0.611504799977411,0.0269255000166595,0.416844399995171,0.0164746988006836,1
16,3,360,300,30,-45,-1.78318251666699,-1,0.492356800008565,0.0268959999666549,0.296922600013204,0.0164746988006836,1
23,3,361,440,44,-45,-1.78318251666699,-1,0.559618400002364,0.0263033999945037,0.43726630002493,0.0164746988006836,1
7,3,362,120,12,45,-1.78318251666699,1,0.511975599976722,0.0268040999653749,0.116812199994456,0.0164746988006836,1
48,3,363,940,94,45,-1.78318251666699,1,0.555376199947204,0.0269377999939024,0.937092299980577,0.0164746988006836,1
51,3,364,1000,100,45,-1.78318251666699,1,2.79939349996857,0.0271076000062749,0.997075400024187,0.0164746988006836,1
47,3,365,920,92,45,-1.78318251666699,1,0.559875299979467,0.0269548000069335,0.916935699991882,0.0164746988006836,1
13,3,366,240,24,-45,-1.78318251666699,-1,0.552107799972873,0.0270478000165895,0.236980199988466,0.0164746988006836,1
41,3,367,800,80,-45,-1.78318251666699,1,0.345531800005119,0.0261467999662273,0.796192300040275,0.0164746988006836,0
32,3,368,620,62,-45,-1.78318251666699,1,0.877690799999982,0.0261539000202902,0.616115999990143,0.0164746988006836,0
40,3,369,780,78,-45,-1.78318251666699,-1,0.493938500003424,0.026145700016059,0.776206299953628,0.0164746988006836,1
12,3,370,220,22,45,-1.78318251666699,-1,0.541388600016944,0.0261388999642804,0.216175800014753,0.0164746988006836,0
17,3,371,320,32,-45,-1.78318251666699,-1,0.425758500001393,0.0261179999797605,0.316243100038264,0.0164746988006836,1
12,3,372,220,22,-45,-1.78318251666699,-1,0.58922339999117,0.0261509999982081,0.216235300002154,0.0164746988006836,1
42,3,373,820,82,-45,-1.78318251666699,1,0.885763700003736,0.0261871000402607,0.816144299984444,0.0164746988006836,0
29,3,374,560,56,45,-1.78318251666699,-1,2.08950729999924,0.0261886999942362,0.556275900045875,0.0164746988006836,0
6,3,375,100,10,-45,-1.78318251666699,-1,1.01421499997377,0.0261366000049748,0.0960973000037484,0.0164746988006836,1
17,3,376,320,32,-45,-1.78318251666699,1,0.568875199998729,0.0265800000051968,0.316602299979422,0.0164746988006836,0
1,3,377,0,0,45,-1.78318251666699,1,0.643883900018409,0.0262533000204712,0.00206799997249618,0.0164746988006836,1
24,3,378,460,46,-45,-1.78318251666699,1,0.668552799965255,0.0266495000105351,0.456882599974051,0.0164746988006836,0
16,3,379,300,30,45,-1.78318251666699,1,1.33899630000815,0.0269326000125147,0.297137800022028,0.0164746988006836,1
21,3,380,400,40,-45,-1.78318251666699,-1,0.487665400025435,0.0271247000200674,0.397163499961607,0.0164746988006836,1
14,3,381,260,26,45,-1.78318251666699,1,0.628220600017812,0.0270776999532245,0.25684770004591,0.0164746988006836,1
11,3,382,200,20,45,-1.78318251666699,-1,0.479378400021233,0.0272008000174537,0.196944799972698,0.0164746988006836,0
15,3,383,280,28,45,-1.78318251666699,1,0.831619300006423,0.0269447999889962,0.276831600000151,0.0164746988006836,1
2,3,384,20,2,45,-1.78318251666699,-1,0.581024199957028,0.0261895000003278,0.0161147000035271,0.0164746988006836,0
44,3,385,860,86,45,-1.78318251666699,1,1.0672039000201,0.0269312000018544,0.856953599955887,0.0164746988006836,1
6,3,386,100,10,45,-1.78318251666699,-1,0.532276600017212,0.0266352000180632,0.0967485999572091,0.0164746988006836,0
26,3,387,500,50,-45,-1.78318251666699,-1,0.579057800001465,0.0269804000272416,0.497542299970519,0.0164746988006836,1
51,3,388,1000,100,45,-1.78318251666699,1,0.528533500037156,0.026823099993635,0.997039899986703,0.0164746988006836,1
7,3,389,120,12,45,-1.78318251666699,1,0.511790600023232,0.0268711000098847,0.116912299999967,0.0164746988006836,1
17,3,390,320,32,-45,-1.78318251666699,1,0.983332700037863,0.0269165000063367,0.316969999985304,0.0164746988006836,0
33,3,391,640,64,45,-1.78318251666699,1,1.08004199998686,0.0269627999514341,0.637013800034765,0.0164746988006836,1
5,3,392,80,8,-45,-1.78318251666699,-1,0.680345600005239,0.0266253000008874,0.076701000041794,0.0164746988006836,1
38,3,393,740,74,-45,-1.78318251666699,1,0.4526135000051,0.0268368999822997,0.736969300021883,0.0164746988006836,0
26,3,394,500,50,45,-1.78318251666699,1,0.516126499976963,0.0269124999758787,0.497036100015976,0.0164746988006836,1
9,3,395,160,16,-45,-1.78318251666699,-1,0.631879699998535,0.0267907000379637,0.156854000000749,0.0164746988006836,1
34,3,396,660,66,-45,-1.78318251666699,1,0.532284700020682,0.0268933000043035,0.657086900027934,0.0164746988006836,0
35,3,397,680,68,-45,-1.78318251666699,1,0.639417600003071,0.0269435000373051,0.677035300002899,0.0164746988006836,0
50,3,398,980,98,-45,-1.78318251666699,-1,0.563480400014669,0.0268864000099711,0.977116199966986,0.0164746988006836,1
51,3,399,1000,100,45,-1.78318251666699,1,1.82341840001754,0.0270076000015251,0.997097599960398,0.0164746988006836,1
45,3,400,880,88,-45,-1.78318251666699,-1,1.07968330004951,0.0270091000129469,0.877065900014713,0.0164746988006836,1
21,3,401,400,40,-45,-1.78318251666699,-1,0.536074900010135,0.0269347000285052,0.396948299952783,0.0164746988006836,1
49,3,402,960,96,45,-1.78318251666699,1,0.536418900010176,0.0269974999828264,0.956957900023554,0.0164746988006836,1
29,3,403,560,56,-45,-1.78318251666699,-1,0.504470899992157,0.0266871000058018,0.556961599970236,0.0164746988006836,1
13,3,404,240,24,-45,-1.78318251666699,1,0.712158299982548,0.027000300004147,0.236967800010461,0.0164746988006836,0
18,3,405,340,34,45,-1.78318251666699,1,0.483552500023507,0.0268771999981254,0.337674700014759,0.0164746988006836,1
4,3,406,60,6,45,-1.78318251666699,1,0.747553499997593,0.0274449000135064,0.0567029999801889,0.0164746988006836,1
32,3,407,620,62,45,-1.78318251666699,1,0.491851400001906,0.0268645000178367,0.617022800026461,0.0164746988006836,1
42,3,408,820,82,45,-1.78318251666699,1,0.931442799977958,0.026973599975463,0.817122300039046,0.0164746988006836,1
43,3,409,840,84,45,-1.78318251666699,1,0.768498999997973,0.0268706000060774,0.836981300031766,0.0164746988006836,1
39,3,410,760,76,45,-1.78318251666699,-1,1.05634559999453,0.0270408000214957,0.75700370001141,0.0164746988006836,0
8,3,411,140,14,-45,-1.78318251666699,-1,0.508016299980227,0.0268612999934703,0.136992299987469,0.0164746988006836,1
9,3,412,160,16,-45,-1.78318251666699,1,1.12812289997237,0.0268960000248626,0.157031399954576,0.0164746988006836,0
37,3,413,720,72,-45,-1.78318251666699,-1,0.759455299994443,0.0271316000143997,0.717204899992794,0.0164746988006836,1
35,3,414,680,68,45,-1.78318251666699,1,0.911682600039057,0.0272186999791302,0.677243400015868,0.0164746988006836,1
13,3,415,240,24,-45,-1.78318251666699,-1,0.583354899950791,0.0270080000045709,0.237059900013264,0.0164746988006836,1
14,3,416,260,26,-45,-1.78318251666699,1,0.6914540999569,0.0267785000032745,0.256966599961743,0.0164746988006836,0
22,3,417,420,42,-45,-1.78318251666699,-1,0.643907800025772,0.0268318000016734,0.416947099962272,0.0164746988006836,1
41,3,418,800,80,-45,-1.78318251666699,1,0.935371099971235,0.0268376999883913,0.797058399999514,0.0164746988006836,0
34,3,419,660,66,-45,-1.78318251666699,-1,0.579538899997715,0.026898899988737,0.657107100007124,0.0164746988006836,1
45,3,420,880,88,45,-1.78318251666699,-1,0.471738499996718,0.0269049000344239,0.87725879997015,0.0164746988006836,0
50,3,421,980,98,45,-1.78318251666699,-1,0.659892700030468,0.0271046000416391,0.977140399976633,0.0164746988006836,0
23,3,422,440,44,-45,-1.78318251666699,1,0.992062200035434,0.0269339999649674,0.437074400018901,0.0164746988006836,0
19,3,423,360,36,45,-1.78318251666699,-1,0.655992299958598,0.0267883000196889,0.356852199998684,0.0164746988006836,0
29,3,424,560,56,-45,-1.78318251666699,-1,0.585129900020547,0.0266208000248298,0.556570300017484,0.0164746988006836,1
15,3,425,280,28,45,-1.78318251666699,1,0.479914399969857,0.0267669999739155,0.276843299972825,0.0164746988006836,1
33,3,426,640,64,45,-1.78318251666699,-1,0.456412600004114,0.0269512999802828,0.63694920000853,0.0164746988006836,0
20,3,427,380,38,-45,-1.78318251666699,-1,0.619964300014544,0.0269163000048138,0.377200099988841,0.0164746988006836,1
27,3,428,520,52,-45,-1.78318251666699,-1,0.576298700005282,0.0269474000087939,0.516937099979259,0.0164746988006836,1
31,3,429,600,60,45,-1.78318251666699,1,1.39263719995506,0.0269045000313781,0.596948499965947,0.0164746988006836,1
15,3,430,280,28,45,-1.78318251666699,-1,0.575646099983715,0.0268547000014223,0.277254300017375,0.0164746988006836,0
34,3,431,660,66,-45,-1.78318251666699,-1,0.547436799970455,0.0270643999683671,0.657148200029042,0.0164746988006836,1
12,3,432,220,22,45,-1.78318251666699,1,0.507824899978004,0.0267937000025995,0.216970500012394,0.0164746988006836,1
36,3,433,700,70,45,-1.78318251666699,1,0.908399700012524,0.026209999981802,0.696745499968529,0.0164746988006836,1
22,3,434,420,42,45,-1.78318251666699,-1,0.451713199960068,0.0270953999715857,0.417002800037153,0.0164746988006836,0
2,3,435,20,2,-45,-1.78318251666699,1,0.677572200016584,0.0262032999889925,0.0162308000144549,0.0164746988006836,0
48,3,436,940,94,-45,-1.78318251666699,-1,0.492124300042633,0.0269648000248708,0.937100299983285,0.0164746988006836,1
39,3,437,760,76,45,-1.78318251666699,1,0.576506500015967,0.0268367000389844,0.756974299962167,0.0164746988006836,1
25,3,438,480,48,45,-1.78318251666699,1,0.519646600005217,0.0270111999707296,0.476954000012483,0.0164746988006836,1
10,3,439,180,18,-45,-1.78318251666699,-1,0.563502400007565,0.0269299999927171,0.176967400009744,0.0164746988006836,1
39,3,440,760,76,-45,-1.78318251666699,1,0.672043099999428,0.0268975000362843,0.756937699974515,0.0164746988006836,0
26,3,441,500,50,-45,-1.78318251666699,-1,0.579185499984305,0.0270334000233561,0.497959300002549,0.0164746988006836,1
40,3,442,780,78,-45,-1.78318251666699,-1,0.827671100036241,0.0270147999981418,0.777132400020491,0.0164746988006836,1
30,3,443,580,58,-45,-1.78318251666699,-1,0.595350600022357,0.0270477999583818,0.57718650001334,0.0164746988006836,1
27,3,444,520,52,-45,-1.78318251666699,-1,0.367991900013294,0.0272522000013851,0.517045499989763,0.0164746988006836,1
42,3,445,820,82,-45,-1.78318251666699,-1,0.979970399988815,0.0269165000063367,0.817040900001302,0.0164746988006836,1
10,3,446,180,18,45,-1.78318251666699,1,0.596285399980843,0.0267821999732405,0.177015200024471,0.0164746988006836,1
49,3,447,960,96,45,-1.78318251666699,1,0.440769599983469,0.0268040999653749,0.956968099984806,0.0164746988006836,1
6,3,448,100,10,-45,-1.78318251666699,-1,1.06041149998782,0.0268795999581926,0.096885500010103,0.0164746988006836,1
31,3,449,600,60,-45,-1.78318251666699,-1,0.880103200033773,0.0273288999451324,0.597063200024422,0.0164746988006836,1
16,3,450,300,30,45,-1.78318251666699,-1,0.572091199981514,0.0270955000305548,0.297072199988179,0.0164746988006836,0
40,3,451,780,78,45,-1.78318251666699,-1,0.55574159999378,0.0269281000364572,0.777090299990959,0.0164746988006836,0
3,3,452,40,4,-45,-1.78318251666699,1,0.641405100002885,0.0265605999738909,0.0364111000089906,0.0164746988006836,0
38,3,453,740,74,-45,-1.78318251666699,-1,0.611650399980135,0.0270171000156552,0.737368399975821,0.0164746988006836,1
19,3,454,360,36,-45,-1.78318251666699,-1,0.671544199984055,0.0270042000338435,0.35689110000385,0.0164746988006836,1
25,3,455,480,48,-45,-1.78318251666699,1,0.503654699947219,0.0270273999776691,0.477032700029667,0.0164746988006836,0
44,3,456,860,86,-45,-1.78318251666699,-1,0.523733999987599,0.0269525999901816,0.856964500038885,0.0164746988006836,1
47,3,457,920,92,45,-1.78318251666699,1,0.544040400010999,0.0269943999592215,0.916982299997471,0.0164746988006836,1
43,3,458,840,84,-45,-1.78318251666699,-1,0.575715899991337,0.0270111000281759,0.837123900011647,0.0164746988006836,1
36,3,459,700,70,45,-1.78318251666699,1,0.427447299996857,0.0270342999720015,0.697069399990141,0.0164746988006836,1
48,4,460,940,94,45,-1.78318251666699,1,0.554910400009248,0.0271523999981582,0.937309200002346,0.0164746988006836,1
28,4,461,540,54,-45,-1.78318251666699,-1,0.57184230000712,0.0270623000105843,0.537085199961439,0.0164746988006836,1
30,4,462,580,58,-45,-1.78318251666699,-1,0.404295500018634,0.0267689999891445,0.577166499977466,0.0164746988006836,1
44,4,463,860,86,45,-1.78318251666699,-1,0.395437400031369,0.0269753999891691,0.856942099984735,0.0164746988006836,0
6,4,464,100,10,-45,-1.78318251666699,-1,0.932344199973159,0.0268152999924496,0.0969355999841355,0.0164746988006836,1
19,4,465,360,36,45,-1.78318251666699,1,0.463705600006506,0.026977600005921,0.356884500011802,0.0164746988006836,1
16,4,466,300,30,-45,-1.78318251666699,-1,0.506884899979923,0.0269545000046492,0.29737559997011,0.0164746988006836,1
47,4,467,920,92,45,-1.78318251666699,1,0.783728600014001,0.0268798000179231,0.917090000002645,0.0164746988006836,1
5,4,468,80,8,45,-1.78318251666699,-1,1.09692800004268,0.0265810999553651,0.0767264000023715,0.0164746988006836,0
20,4,469,380,38,-45,-1.78318251666699,1,0.604093100002501,0.026479099993594,0.376987600000575,0.0164746988006836,0
25,4,470,480,48,45,-1.78318251666699,1,0.631863299990073,0.0270862000179477,0.477201099973172,0.0164746988006836,1
10,4,471,180,18,45,-1.78318251666699,1,0.756656000041403,0.0266667999676429,0.176958199997898,0.0164746988006836,1
25,4,472,480,48,-45,-1.78318251666699,-1,0.471444199967664,0.0271656000404619,0.477001199964434,0.0164746988006836,1
14,4,473,260,26,-45,-1.78318251666699,1,0.564107199956197,0.027157700038515,0.257206399983261,0.0164746988006836,0
20,4,474,380,38,-45,-1.78318251666699,-1,0.69978429999901,0.0270631000166759,0.376993499987293,0.0164746988006836,1
19,4,475,360,36,-45,-1.78318251666699,-1,0.51159040001221,0.0270539000048302,0.357053200015798,0.0164746988006836,1
18,4,476,340,34,-45,-1.78318251666699,1,0.611220200022217,0.0274461999651976,0.336992099997588,0.0164746988006836,0
45,4,477,880,88,45,-1.78318251666699,1,0.839045399974566,0.0270525999949314,0.877136500028428,0.0164746988006836,1
31,4,478,600,60,45,-1.78318251666699,1,0.559543899958953,0.0268258000141941,0.597096299985424,0.0164746988006836,1
21,4,479,400,40,45,-1.78318251666699,-1,0.550960300024599,0.0270511000417173,0.397266799991485,0.0164746988006836,0
50,4,480,980,98,-45,-1.78318251666699,1,2.03498679999029,0.027055400016252,0.977402099990286,0.0164746988006836,0
29,4,481,560,56,45,-1.78318251666699,1,0.631369600014295,0.0270716000231914,0.557142200006638,0.0164746988006836,1
46,4,482,900,90,-45,-1.78318251666699,-1,0.562939900031779,0.0271225999458693,0.89722189999884,0.0164746988006836,1
13,4,483,240,24,-45,-1.78318251666699,-1,1.03260090004187,0.0267388999927789,0.236985000025015,0.0164746988006836,1
26,4,484,500,50,45,-1.78318251666699,-1,1.12322930002119,0.0270602999953553,0.496948999993037,0.0164746988006836,0
37,4,485,720,72,-45,-1.78318251666699,-1,0.631917299993802,0.0270650000311434,0.717213800002355,0.0164746988006836,1
44,4,486,860,86,45,-1.78318251666699,-1,0.619698199967388,0.02677490003407,0.856959099997766,0.0164746988006836,0
37,4,487,720,72,-45,-1.78318251666699,-1,0.600077399984002,0.0269388000015169,0.716936899989378,0.0164746988006836,1
15,4,488,280,28,-45,-1.78318251666699,-1,0.655780899978708,0.0272839999524876,0.276841300015803,0.0164746988006836,1
41,4,489,800,80,45,-1.78318251666699,1,0.696391599951312,0.0269019000115804,0.796949699986726,0.0164746988006836,1
36,4,490,700,70,45,-1.78318251666699,-1,1.00331689999439,0.0268929000012577,0.697068999987096,0.0164746988006836,0
8,4,491,140,14,-45,-1.78318251666699,1,0.619822599983308,0.0268302999902517,0.136804300011136,0.0164746988006836,0
5,4,492,80,8,-45,-1.78318251666699,-1,0.584232799999882,0.0267536999890581,0.0767205000156537,0.0164746988006836,1
35,4,493,680,68,-45,-1.78318251666699,1,0.479755499982275,0.0270563999656588,0.677065700001549,0.0164746988006836,0
29,4,494,560,56,-45,-1.78318251666699,-1,0.455927000031807,0.0270498000318184,0.557287100004032,0.0164746988006836,1
23,4,495,440,44,-45,-1.78318251666699,-1,0.879271699988749,0.0270990999997593,0.437133500003256,0.0164746988006836,1
49,4,496,960,96,-45,-1.78318251666699,-1,1.01545989996521,0.0269535000552423,0.957095799967647,0.0164746988006836,1
46,4,497,900,90,-45,-1.78318251666699,-1,0.595404099964071,0.0270080000045709,0.897147599956952,0.0164746988006836,1
42,4,498,820,82,45,-1.78318251666699,-1,2.62810879998142,0.0269059000420384,0.81714609998744,0.0164746988006836,0
32,4,499,620,62,45,-1.78318251666699,1,0.619868099980522,0.0270542999496683,0.617147700046189,0.0164746988006836,1
39,4,500,760,76,45,-1.78318251666699,1,1.13627620000625,0.0269085000036284,0.756920299958438,0.0164746988006836,1
20,4,501,380,38,-45,-1.78318251666699,-1,0.699917799967807,0.0268678000429645,0.37703249999322,0.0164746988006836,1
45,4,502,880,88,45,-1.78318251666699,1,0.599451499991119,0.0270804000319913,0.876936799963005,0.0164746988006836,1
7,4,503,120,12,45,-1.78318251666699,1,1.13655520003522,0.0267773999948986,0.116800100018736,0.0164746988006836,1
11,4,504,200,20,-45,-1.78318251666699,-1,0.55874250002671,0.0270385000039823,0.197176199988462,0.0164746988006836,1
39,4,505,760,76,-45,-1.78318251666699,1,2.87937390001025,0.027131000009831,0.757208900002297,0.0164746988006836,0
40,4,506,780,78,45,-1.78318251666699,-1,0.763456600019708,0.0270107000251301,0.776969599945005,0.0164746988006836,0
31,4,507,600,60,-45,-1.78318251666699,-1,1.11966810002923,0.0271015000180341,0.597087300033309,0.0164746988006836,1
34,4,508,660,66,45,-1.78318251666699,-1,0.89865980000468,0.0269996999995783,0.657240299973637,0.0164746988006836,0
24,4,509,460,46,-45,-1.78318251666699,-1,0.603704200009815,0.0268987999879755,0.456937699986156,0.0164746988006836,1
3,4,510,40,4,-45,-1.78318251666699,-1,0.896863600006327,0.0263764999690466,0.0362624000408687,0.0164746988006836,1
35,4,511,680,68,-45,-1.78318251666699,-1,0.783809399988968,0.0269632000126876,0.677177100034896,0.0164746988006836,1
10,4,512,180,18,45,-1.78318251666699,-1,0.628242100006901,0.0268566000158899,0.176950399996713,0.0164746988006836,0
28,4,513,540,54,45,-1.78318251666699,1,0.683576399984304,0.0270658999797888,0.537125299975742,0.0164746988006836,1
43,4,514,840,84,-45,-1.78318251666699,-1,0.959751299989875,0.0270053000422195,0.837026299966965,0.0164746988006836,1
1,4,515,0,0,-45,-1.78318251666699,-1,1.52408180001657,0.0262074000202119,0.00170399999478832,0.0164746988006836,1
17,4,516,320,32,45,-1.78318251666699,1,0.98319120000815,0.0269071999937296,0.317098499974236,0.0164746988006836,1
38,4,517,740,74,-45,-1.78318251666699,1,0.612264900002629,0.0269605999928899,0.736951800005045,0.0164746988006836,0
12,4,518,220,22,-45,-1.78318251666699,-1,2.12428460002411,0.0269555000122637,0.217053400003351,0.0164746988006836,1
33,4,519,640,64,-45,-1.78318251666699,-1,1.49543730000732,0.0270125000388362,0.637261500000022,0.0164746988006836,1
27,4,520,520,52,45,-1.78318251666699,1,0.510767799976747,0.0270395000115968,0.51753449998796,0.0164746988006836,1
7,4,521,120,12,45,-1.78318251666699,1,1.44024469994474,0.0267580999643542,0.116793500026688,0.0164746988006836,1
48,4,522,940,94,-45,-1.78318251666699,-1,0.555841699999291,0.0266310999868438,0.937377499998547,0.0164746988006836,1
8,4,523,140,14,45,-1.78318251666699,-1,0.635691799980123,0.0269217999884859,0.136814299970865,0.0164746988006836,0
49,4,524,960,96,45,-1.78318251666699,1,0.631345500005409,0.0268592999782413,0.957108900009189,0.0164746988006836,1
49,4,525,960,96,45,-1.78318251666699,1,0.903977199981455,0.0267665000283159,0.957102599961217,0.0164746988006836,1
6,4,526,100,10,-45,-1.78318251666699,-1,0.532450099999551,0.0267863000044599,0.0966830999823287,0.0164746988006836,1
31,4,527,600,60,45,-1.78318251666699,1,0.511366799997631,0.0271091000176966,0.597184700018261,0.0164746988006836,1
18,4,528,340,34,45,-1.78318251666699,1,0.579890699998941,0.0266844999860041,0.337014999997336,0.0164746988006836,1
6,4,529,100,10,45,-1.78318251666699,1,0.627806500007864,0.0267391999950632,0.0968737999792211,0.0164746988006836,1
21,4,530,400,40,-45,-1.78318251666699,1,0.583935600006953,0.0268799000186846,0.396957199962344,0.0164746988006836,0
51,4,531,1000,100,-45,-1.78318251666699,-1,0.607854300003964,0.0270154000027105,0.997151200019289,0.0164746988006836,1
2,4,532,20,2,45,-1.78318251666699,-1,1.74957889999496,0.0261953999870457,0.0161552000208758,0.0164746988006836,0
40,4,533,780,78,45,-1.78318251666699,1,0.539481699990574,0.0270407000207342,0.777412099996582,0.0164746988006836,1
30,4,534,580,58,-45,-1.78318251666699,-1,0.500038199999835,0.0269544000038877,0.576960399979725,0.0164746988006836,1
1,4,535,0,0,45,-1.78318251666699,1,0.675467399996705,0.0262492999900132,0.00196500000311062,0.0164746988006836,1
25,4,536,480,48,-45,-1.78318251666699,-1,0.601900000008754,0.0260891999932937,0.476162999984808,0.0164746988006836,1
4,4,537,60,6,-45,-1.78318251666699,-1,0.862178199982736,0.0261817999999039,0.0560517000267282,0.0164746988006836,1
17,4,538,320,32,45,-1.78318251666699,1,0.760064299975056,0.0268056999775581,0.316804600006435,0.0164746988006836,1
27,4,539,520,52,45,-1.78318251666699,1,0.576087399967946,0.0269886999740265,0.517020899977069,0.0164746988006836,1
23,4,540,440,44,45,-1.78318251666699,1,0.591688600019552,0.0265995000372641,0.436962299980223,0.0164746988006836,1
28,4,541,540,54,45,-1.78318251666699,1,0.859293999965303,0.027058899984695,0.536791099992115,0.0164746988006836,1
15,4,542,280,28,45,-1.78318251666699,1,0.703714499948546,0.0269700000062585,0.277048100018874,0.0164746988006836,1
43,4,543,840,84,-45,-1.78318251666699,1,1.43919579999056,0.0265638999990188,0.837006199988537,0.0164746988006836,0
9,4,544,160,16,45,-1.78318251666699,1,0.532512300007511,0.0267013999982737,0.16047930001514,0.0164746988006836,1
29,4,545,560,56,45,-1.78318251666699,-1,0.71203080000123,0.0270279999822378,0.557181000011042,0.0164746988006836,0
22,4,546,420,42,-45,-1.78318251666699,-1,0.515644200029783,0.026796700025443,0.416867299994919,0.0164746988006836,1
8,4,547,140,14,45,-1.78318251666699,1,0.572049399954267,0.0269847000017762,0.136851200019009,0.0164746988006836,1
4,4,548,60,6,45,-1.78318251666699,1,0.604153599997517,0.0266532000387087,0.0566497999825515,0.0164746988006836,1
24,4,549,460,46,45,-1.78318251666699,1,0.747221599973273,0.0269186000223272,0.457028099976014,0.0164746988006836,1
10,4,550,180,18,45,-1.78318251666699,1,0.628875099995639,0.0268208000343293,0.176957599993329,0.0164746988006836,1
26,4,551,500,50,-45,-1.78318251666699,-1,0.579182400018908,0.0269049000344239,0.496993699984159,0.0164746988006836,1
11,4,552,200,20,45,-1.78318251666699,1,0.57671890000347,0.0267155999899842,0.19682000001194,0.0164746988006836,1
14,4,553,260,26,-45,-1.78318251666699,-1,0.484419999993406,0.0268399000051431,0.256861499976367,0.0164746988006836,1
21,4,554,400,40,-45,-1.78318251666699,-1,0.679291599954013,0.0270141000510193,0.396965399966575,0.0164746988006836,1
4,4,555,60,6,45,-1.78318251666699,1,0.684674599964637,0.0265754000283778,0.0568103999830782,0.0164746988006836,1
41,4,556,800,80,45,-1.78318251666699,1,0.616104700020514,0.0266611999832094,0.79699729999993,0.0164746988006836,1
46,4,557,900,90,-45,-1.78318251666699,1,1.30046020000009,0.0267325000022538,0.896949700021651,0.0164746988006836,0
27,4,558,520,52,45,-1.78318251666699,1,0.784079999953974,0.0269439999829046,0.517337700002827,0.0164746988006836,1
24,4,559,460,46,45,-1.78318251666699,1,0.763112000015099,0.0270730000338517,0.456951099971775,0.0164746988006836,1
39,4,560,760,76,-45,-1.78318251666699,-1,0.560272399976384,0.02697960002115,0.756952000025194,0.0164746988006836,1
1,4,561,0,0,45,-1.78318251666699,1,1.12417539994931,0.0262650999939069,0.00174710003193468,0.0164746988006836,1
15,4,562,280,28,45,-1.78318251666699,-1,1.08745950000593,0.0271398000186309,0.276952399988659,0.0164746988006836,0
50,4,563,980,98,-45,-1.78318251666699,1,0.515810500015505,0.0269404000137001,0.977076400013175,0.0164746988006836,0
9,4,564,160,16,-45,-1.78318251666699,1,0.760033800033852,0.0265592000214383,0.156820799980778,0.0164746988006836,0
34,4,565,660,66,45,-1.78318251666699,1,0.868720700033009,0.0263462999719195,0.657147200021427,0.0164746988006836,1
47,4,566,920,92,-45,-1.78318251666699,-1,0.608313000004273,0.0269895000383258,0.917058299994096,0.0164746988006836,1
36,4,567,700,70,-45,-1.78318251666699,-1,0.811591000005137,0.0269082000013441,0.696954099985305,0.0164746988006836,1
42,4,568,820,82,-45,-1.78318251666699,1,0.676004900014959,0.0269833000493236,0.81702379998751,0.0164746988006836,0
19,4,569,360,36,-45,-1.78318251666699,1,0.559387100045569,0.0268586999736726,0.35684120003134,0.0164746988006836,0
17,4,570,320,32,-45,-1.78318251666699,1,1.91277100000298,0.0268076999927871,0.316829200019129,0.0164746988006836,0
13,4,571,240,24,45,-1.78318251666699,1,0.648376099998131,0.0269288999843411,0.237078500038479,0.0164746988006836,1
9,4,572,160,16,45,-1.78318251666699,1,0.840347500052303,0.0265130000188947,0.157061000005342,0.0164746988006836,1
44,4,573,860,86,-45,-1.78318251666699,1,0.715189799957443,0.027048299962189,0.857223600032739,0.0164746988006836,0
35,4,574,680,68,-45,-1.78318251666699,-1,0.528374699992128,0.0268435999751091,0.677033199986909,0.0164746988006836,1
3,4,575,40,4,45,-1.78318251666699,1,0.753253499977291,0.0263555999845266,0.0362679000245407,0.0164746988006836,1
50,4,576,980,98,-45,-1.78318251666699,1,0.883797599992249,0.0269279999774881,0.9770131999976,0.0164746988006836,0
41,4,577,800,80,-45,-1.78318251666699,-1,0.600228799972683,0.0269903999869712,0.797020800004248,0.0164746988006836,1
7,4,578,120,12,-45,-1.78318251666699,1,0.591868999996223,0.0267605999833904,0.11697259999346,0.0164746988006836,0
51,4,579,1000,100,-45,-1.78318251666699,1,2.35208659997443,0.026923600002192,0.997050300007686,0.0164746988006836,0
43,4,580,840,84,45,-1.78318251666699,1,0.640136799949687,0.0271289000520483,0.837112699984573,0.0164746988006836,1
40,4,581,780,78,45,-1.78318251666699,1,2.23558490001597,0.02698219998274,0.777260500006378,0.0164746988006836,1
11,4,582,200,20,45,-1.78318251666699,1,1.03954879997764,0.0268477000063285,0.196975399972871,0.0164746988006836,1
47,4,583,920,92,-45,-1.78318251666699,-1,0.94370030000573,0.0268723000190221,0.917088499991223,0.0164746988006836,1
36,4,584,700,70,-45,-1.78318251666699,1,0.636134600033984,0.0268009999999776,0.697333599964622,0.0164746988006836,0
13,4,585,240,24,-45,-1.78318251666699,-1,0.552216899988707,0.0269469000049867,0.236833499977365,0.0164746988006836,1
37,4,586,720,72,-45,-1.78318251666699,1,0.696019299968611,0.026877099997364,0.71712360001402,0.0164746988006836,0
12,4,587,220,22,45,-1.78318251666699,-1,0.699993200018071,0.0267887000227347,0.217010699969251,0.0164746988006836,0
14,4,588,260,26,-45,-1.78318251666699,1,0.564375300018582,0.0267984000383876,0.25696919998154,0.0164746988006836,0
32,4,589,620,62,45,-1.78318251666699,1,0.667499700037297,0.0270094000152312,0.616939199971966,0.0164746988006836,1
16,4,590,300,30,45,-1.78318251666699,1,0.603374099999201,0.0269273999729194,0.297119099996053,0.0164746988006836,1
34,4,591,660,66,45,-1.78318251666699,1,0.643792400020175,0.0270368999917991,0.656959499989171,0.0164746988006836,1
45,4,592,880,88,-45,-1.78318251666699,1,0.535731100011617,0.0270694000064395,0.877016200043727,0.0164746988006836,0
22,4,593,420,42,-45,-1.78318251666699,-1,0.899901399970986,0.0269989999942482,0.417535500018857,0.0164746988006836,1
38,4,594,740,74,-45,-1.78318251666699,1,0.867841899977066,0.0269596999860369,0.737039800034836,0.0164746988006836,0
2,4,595,20,2,45,-1.78318251666699,1,0.661292100034188,0.0262940999818966,0.0161276999861002,0.0164746988006836,1
12,4,596,220,22,-45,-1.78318251666699,1,1.62804559996584,0.0267174000036903,0.216915900004096,0.0164746988006836,0
26,4,597,500,50,-45,-1.78318251666699,1,1.01133500004653,0.0268619999988005,0.49726550001651,0.0164746988006836,0
32,4,598,620,62,-45,-1.78318251666699,1,0.795593399961945,0.0268907000427134,0.617006499960553,0.0164746988006836,0
23,4,599,440,44,-45,-1.78318251666699,-1,0.607449200004339,0.027016400010325,0.43715259997407,0.0164746988006836,1
30,4,600,580,58,-45,-1.78318251666699,1,0.739822399977129,0.0270055999862961,0.576998799981084,0.0164746988006836,0
51,4,601,1000,100,45,-1.78318251666699,1,0.735292500001378,0.0270676999934949,0.997141300002113,0.0164746988006836,1
48,4,602,940,94,45,-1.78318251666699,1,0.61695240001427,0.0270017000148073,0.937190299970098,0.0164746988006836,1
5,4,603,80,8,-45,-1.78318251666699,1,1.60960969998268,0.0260850999620743,0.0762208999949507,0.0164746988006836,0
22,4,604,420,42,-45,-1.78318251666699,-1,1.78032049996546,0.0269470000057481,0.416986799973529,0.0164746988006836,1
33,4,605,640,64,45,-1.78318251666699,1,1.06624519999605,0.026010999979917,0.636160299996845,0.0164746988006836,1
18,4,606,340,34,-45,-1.78318251666699,-1,0.788154000008944,0.026833500014618,0.33687669999199,0.0164746988006836,1
38,4,607,740,74,-45,-1.78318251666699,1,0.644134100002702,0.027110899973195,0.737262100039516,0.0164746988006836,0
2,4,608,20,2,45,-1.78318251666699,-1,0.901206700014882,0.0261996999615803,0.0160912999999709,0.0164746988006836,0
3,4,609,40,4,45,-1.78318251666699,1,0.591690699977335,0.026458400010597,0.0363737000152469,0.0164746988006836,1
16,4,610,300,30,45,-1.78318251666699,1,0.700875799986534,0.0266078999848105,0.296824799966998,0.0164746988006836,1
42,4,611,820,82,45,-1.78318251666699,1,0.659114599984605,0.0268438999773934,0.817355500010308,0.0164746988006836,1
33,4,612,640,64,-45,-1.78318251666699,-1,0.919840299990028,0.0269576000282541,0.636954899993725,0.0164746988006836,1
9,5,613,160,16,-45,-1.78318251666699,1,0.599401500017848,0.0268345000222325,0.156999200000428,0.0164746988006836,0
13,5,614,240,24,-45,-1.78318251666699,-1,0.487873199977912,0.026936000038404,0.236938200017903,0.0164746988006836,1
1,5,615,0,0,45,-1.78318251666699,1,0.547680099960417,0.0261674000066705,0.00211410003248602,0.0164746988006836,1
10,5,616,180,18,45,-1.78318251666699,1,0.836280999996234,0.0268445000401698,0.176896399992984,0.0164746988006836,1
5,5,617,80,8,-45,-1.78318251666699,-1,0.536458300019149,0.0268535999930464,0.076805200020317,0.0164746988006836,1
21,5,618,400,40,-45,-1.78318251666699,1,1.31991060002474,0.0270092000137083,0.39702810003655,0.0164746988006836,0
49,5,619,960,96,-45,-1.78318251666699,1,0.6005826999899,0.0269192000268959,0.95697790000122,0.0164746988006836,0
3,5,620,40,4,-45,-1.78318251666699,-1,0.577759400010109,0.0262750999536365,0.0362872999976389,0.0164746988006836,1
42,5,621,820,82,45,-1.78318251666699,1,0.515762199996971,0.0267495000152849,0.816999999980908,0.0164746988006836,1
34,5,622,660,66,-45,-1.78318251666699,-1,0.595179199997801,0.0269893999793567,0.657011100032832,0.0164746988006836,1
35,5,623,680,68,45,-1.78318251666699,1,1.00723299995298,0.0268856000038795,0.677050700003747,0.0164746988006836,1
16,5,624,300,30,-45,-1.78318251666699,-1,0.587907499982975,0.0269354999763891,0.29693180002505,0.0164746988006836,1
8,5,625,140,14,45,-1.78318251666699,-1,1.14839270000812,0.0267542999936268,0.136797299957834,0.0164746988006836,0
14,5,626,260,26,45,-1.78318251666699,-1,0.675546500016935,0.0267898999736644,0.256987900007516,0.0164746988006836,0
46,5,627,900,90,-45,-1.78318251666699,-1,0.547882299986668,0.0270015000132844,0.897235799988266,0.0164746988006836,1
22,5,628,420,42,-45,-1.78318251666699,-1,0.723429800011218,0.0271005000104196,0.417404700012412,0.0164746988006836,1
46,5,629,900,90,45,-1.78318251666699,1,0.836091400007717,0.0269681999925524,0.89711169997463,0.0164746988006836,1
31,5,630,600,60,45,-1.78318251666699,1,0.640410400053952,0.0268433999735862,0.596965500037186,0.0164746988006836,1
14,5,631,260,26,-45,-1.78318251666699,-1,0.580613099969923,0.0267238999949768,0.256983399973251,0.0164746988006836,1
14,5,632,260,26,45,-1.78318251666699,1,0.48327289998997,0.0274485999834724,0.257051500026137,0.0164746988006836,1
6,5,633,100,10,45,-1.78318251666699,1,0.56351090001408,0.0267473999992944,0.097004699986428,0.0164746988006836,1
23,5,634,440,44,-45,-1.78318251666699,-1,0.415321699983906,0.0270231000031345,0.437093699991237,0.0164746988006836,1
19,5,635,360,36,-45,-1.78318251666699,-1,0.576318600040395,0.0270648000296205,0.356986499973573,0.0164746988006836,1
40,5,636,780,78,45,-1.78318251666699,-1,1.35626909998246,0.0269341000239365,0.777121899998747,0.0164746988006836,0
15,5,637,280,28,-45,-1.78318251666699,-1,0.527938099985477,0.0269298000494018,0.276914499991108,0.0164746988006836,1
7,5,638,120,12,-45,-1.78318251666699,-1,0.704674099979457,0.0268016000045463,0.116944500012323,0.0164746988006836,1
47,5,639,920,92,-45,-1.78318251666699,-1,1.13624349999009,0.0271072000032291,0.917134499992244,0.0164746988006836,1
17,5,640,320,32,45,-1.78318251666699,-1,1.41548659995897,0.0269688999978825,0.317170199996326,0.0164746988006836,0
20,5,641,380,38,-45,-1.78318251666699,-1,0.763935599999968,0.0265989999752492,0.377134000009391,0.0164746988006836,1
2,5,642,20,2,-45,-1.78318251666699,-1,0.677576499991119,0.0261481000343338,0.016118599975016,0.0164746988006836,1
6,5,643,100,10,-45,-1.78318251666699,-1,0.5644076000317,0.0267662000260316,0.0970384000102058,0.0164746988006836,1
48,5,644,940,94,-45,-1.78318251666699,-1,0.699298599967733,0.0269506000331603,0.936982799961697,0.0164746988006836,1
49,5,645,960,96,-45,-1.78318251666699,-1,0.583999600028619,0.0268691999954171,0.95708880003076,0.0164746988006836,1
36,5,646,700,70,45,-1.78318251666699,-1,0.987808600009885,0.0269526999909431,0.697191199986264,0.0164746988006836,0
32,5,647,620,62,-45,-1.78318251666699,-1,1.33895770000527,0.027073199977167,0.617134000000078,0.0164746988006836,1
12,5,648,220,22,-45,-1.78318251666699,-1,0.540272800019011,0.0267554000020027,0.216841500019655,0.0164746988006836,1
45,5,649,880,88,45,-1.78318251666699,1,0.887279400019906,0.0270709000178613,0.877202500007115,0.0164746988006836,1
27,5,650,520,52,-45,-1.78318251666699,-1,0.656314200023189,0.0271262999740429,0.516954600054305,0.0164746988006836,1
24,5,651,460,46,-45,-1.78318251666699,-1,0.587450099992566,0.0270119000342675,0.457004499970935,0.0164746988006836,1
33,5,652,640,64,45,-1.78318251666699,-1,0.534613499999978,0.027669999981299,0.637229400046635,0.0164746988006836,0
34,5,653,660,66,45,-1.78318251666699,-1,0.611039900046308,0.0269819999812171,0.657117100025062,0.0164746988006836,0
13,5,654,240,24,-45,-1.78318251666699,-1,0.535991000011563,0.0268037999630906,0.236959300003946,0.0164746988006836,1
33,5,655,640,64,45,-1.78318251666699,-1,0.470934600045439,0.0270097000175156,0.637195499963127,0.0164746988006836,0
38,5,656,740,74,-45,-1.78318251666699,-1,0.612257800006773,0.02686680003535,0.737025199981872,0.0164746988006836,1
16,5,657,300,30,45,-1.78318251666699,1,0.827818299992941,0.0269428000319749,0.296968700014986,0.0164746988006836,1
21,5,658,400,40,-45,-1.78318251666699,-1,0.617081300006248,0.0267641000100411,0.396411999943666,0.0164746988006836,1
29,5,659,560,56,45,-1.78318251666699,-1,1.27320840000175,0.0265017000492662,0.556303099961951,0.0164746988006836,0
26,5,660,500,50,-45,-1.78318251666699,-1,0.500554000027478,0.0270019000163302,0.496939199976623,0.0164746988006836,1
42,5,661,820,82,45,-1.78318251666699,-1,0.548081899993122,0.0268984999856912,0.816932400048245,0.0164746988006836,0
4,5,662,60,6,-45,-1.78318251666699,-1,0.988159700005781,0.0267774000531062,0.0567278999951668,0.0164746988006836,1
24,5,663,460,46,45,-1.78318251666699,-1,1.32379090000177,0.0270339999697171,0.456964500015602,0.0164746988006836,0
30,5,664,580,58,45,-1.78318251666699,-1,1.26778310001828,0.0269990999950096,0.577118300017901,0.0164746988006836,0
41,5,665,800,80,45,-1.78318251666699,-1,0.96756620000815,0.0265692999819294,0.797960900003091,0.0164746988006836,0
28,5,666,540,54,-45,-1.78318251666699,-1,0.604059600038454,0.0268941000103951,0.537012799992226,0.0164746988006836,1
18,5,667,340,34,45,-1.78318251666699,-1,1.09226080001099,0.0268900999799371,0.337123000004794,0.0164746988006836,0
19,5,668,360,36,45,-1.78318251666699,-1,0.671978300029878,0.0269708000123501,0.356937600008678,0.0164746988006836,0
13,5,669,240,24,-45,-1.78318251666699,-1,0.75959969998803,0.0270069000544026,0.237110299989581,0.0164746988006836,1
4,5,670,60,6,-45,-1.78318251666699,-1,0.700416500039864,0.0266405000002123,0.0567549000261351,0.0164746988006836,1
17,5,671,320,32,-45,-1.78318251666699,-1,0.903896500007249,0.0270146999973804,0.317212400026619,0.0164746988006836,1
44,5,672,860,86,-45,-1.78318251666699,-1,0.571390800003428,0.0271839000051841,0.857199400023092,0.0164746988006836,1
39,5,673,760,76,-45,-1.78318251666699,1,0.943903500039596,0.0269778000074439,0.757060599979013,0.0164746988006836,0
20,5,674,380,38,-45,-1.78318251666699,-1,0.828250399965327,0.0269456999958493,0.377015699981712,0.0164746988006836,1
43,5,675,840,84,45,-1.78318251666699,-1,0.496752300008666,0.0268134999787435,0.836863100004848,0.0164746988006836,0
34,5,676,660,66,-45,-1.78318251666699,-1,0.500194200023543,0.0269457999966107,0.65711840003496,0.0164746988006836,1
39,5,677,760,76,45,-1.78318251666699,1,0.992043700010981,0.0271769999526441,0.757296300027519,0.0164746988006836,1
44,5,678,860,86,-45,-1.78318251666699,-1,0.923234399990179,0.0270548000116833,0.857338600035291,0.0164746988006836,1
50,5,679,980,98,-45,-1.78318251666699,-1,0.659097699972335,0.0270010000094771,0.977140699978918,0.0164746988006836,1
30,5,680,580,58,-45,-1.78318251666699,-1,0.595471000007819,0.027033299964387,0.577228000038303,0.0164746988006836,1
45,5,681,880,88,45,-1.78318251666699,-1,1.51088529999834,0.026962400006596,0.87711629999103,0.0164746988006836,0
29,5,682,560,56,45,-1.78318251666699,-1,0.600020200014114,0.0267949999542907,0.55704650003463,0.0164746988006836,0
26,5,683,500,50,-45,-1.78318251666699,1,0.931172499957029,0.0269979000440799,0.497239799995441,0.0164746988006836,0
11,5,684,200,20,45,-1.78318251666699,1,1.10346169996774,0.0270563999656588,0.197225900017656,0.0164746988006836,1
15,5,685,280,28,45,-1.78318251666699,-1,0.639990600000601,0.02702209999552,0.27701329998672,0.0164746988006836,0
32,5,686,620,62,-45,-1.78318251666699,-1,0.635459900018759,0.027003999974113,0.617055500042625,0.0164746988006836,1
21,5,687,400,40,45,-1.78318251666699,1,0.520952999999281,0.0269257000181824,0.396586799994111,0.0164746988006836,1
19,5,688,360,36,-45,-1.78318251666699,-1,0.591841899964493,0.0268937000073493,0.357065199990757,0.0164746988006836,1
8,5,689,140,14,45,-1.78318251666699,1,0.492123699979857,0.0267731000203639,0.136817699996755,0.0164746988006836,1
35,5,690,680,68,45,-1.78318251666699,1,0.62509330001194,0.0266053000232205,0.677068999968469,0.0164746988006836,1
38,5,691,740,74,45,-1.78318251666699,-1,0.499993600009475,0.0268650000216439,0.737076099961996,0.0164746988006836,0
15,5,692,280,28,-45,-1.78318251666699,-1,0.608374699950218,0.0268242000020109,0.276813899981789,0.0164746988006836,1
2,5,693,20,2,45,-1.78318251666699,1,0.869819200015627,0.0262699999730103,0.0162499000434764,0.0164746988006836,1
7,5,694,120,12,-45,-1.78318251666699,1,1.44050519994926,0.0268245000042953,0.11698469996918,0.0164746988006836,0
31,5,695,600,60,45,-1.78318251666699,1,0.607360599969979,0.0270936000160873,0.597239299968351,0.0164746988006836,1
40,5,696,780,78,-45,-1.78318251666699,-1,0.571425100031774,0.0269378999946639,0.777004900039174,0.0164746988006836,1
1,5,697,0,0,45,-1.78318251666699,1,0.723838399979286,0.0262649000505917,0.00201779999770224,0.0164746988006836,1
32,5,698,620,62,-45,-1.78318251666699,-1,0.47590019996278,0.0271362000494264,0.61715710000135,0.0164746988006836,1
9,5,699,160,16,45,-1.78318251666699,1,1.11411169997882,0.0261970999999903,0.156347599986475,0.0164746988006836,1
22,5,700,420,42,-45,-1.78318251666699,1,0.83630510000512,0.0269502999726683,0.417157699994277,0.0164746988006836,0
50,5,701,980,98,-45,-1.78318251666699,-1,0.54770350002218,0.0271352000418119,0.976932999968994,0.0164746988006836,1
3,5,702,40,4,-45,-1.78318251666699,-1,0.96111919998657,0.0265425000106916,0.0362145000253804,0.0164746988006836,1
25,5,703,480,48,45,-1.78318251666699,1,0.792695900017861,0.0268803000217304,0.476877200009767,0.0164746988006836,1
3,5,704,40,4,45,-1.78318251666699,-1,0.624148699978832,0.0264678000239655,0.0363375000306405,0.0164746988006836,0
51,5,705,1000,100,45,-1.78318251666699,-1,1.0242873999523,0.0269363999832422,0.997138000035193,0.0164746988006836,0
18,5,706,340,34,-45,-1.78318251666699,-1,0.771347899979446,0.0268340999609791,0.337095600028988,0.0164746988006836,1
51,5,707,1000,100,-45,-1.78318251666699,-1,0.480350199970417,0.0269115999690257,0.997081900015473,0.0164746988006836,1
27,5,708,520,52,-45,-1.78318251666699,-1,0.94413059996441,0.0270166000118479,0.517064599960577,0.0164746988006836,1
35,5,709,680,68,-45,-1.78318251666699,-1,0.623548500007018,0.0269500999711454,0.677001800038852,0.0164746988006836,1
23,5,710,440,44,-45,-1.78318251666699,1,0.656119699997362,0.0269482000148855,0.437072700005956,0.0164746988006836,0
20,5,711,380,38,-45,-1.78318251666699,1,1.74015609995695,0.0268063000403345,0.376863499986939,0.0164746988006836,0
42,5,712,820,82,-45,-1.78318251666699,1,0.995579299982637,0.0268629999482073,0.817009799997322,0.0164746988006836,0
8,5,713,140,14,45,-1.78318251666699,-1,0.539761300024111,0.0268509999732487,0.136841800005641,0.0164746988006836,0
25,5,714,480,48,-45,-1.78318251666699,1,0.743965499976184,0.0266940000001341,0.477091599954292,0.0164746988006836,0
47,5,715,920,92,45,-1.78318251666699,1,0.800182200036943,0.0267797000124119,0.917191900021862,0.0164746988006836,1
41,5,716,800,80,-45,-1.78318251666699,-1,0.567868400015868,0.0269443999859504,0.797039900033269,0.0164746988006836,1
43,5,717,840,84,-45,-1.78318251666699,-1,0.576246500015259,0.0268387999967672,0.837171500024851,0.0164746988006836,1
23,5,718,440,44,-45,-1.78318251666699,1,0.576227699988522,0.0269964999752119,0.436987500055693,0.0164746988006836,0
46,5,719,900,90,45,-1.78318251666699,1,0.579835999989882,0.0268045999691822,0.896969800000079,0.0164746988006836,1
38,5,720,740,74,-45,-1.78318251666699,-1,0.563380200008396,0.0269109000219032,0.737310399999842,0.0164746988006836,1
2,5,721,20,2,45,-1.78318251666699,1,0.773860900022555,0.0261514000012539,0.0160229000030085,0.0164746988006836,1
49,5,722,960,96,-45,-1.78318251666699,1,1.19148189999396,0.0269469000049867,0.95718119997764,0.0164746988006836,0
51,5,723,1000,100,45,-1.78318251666699,1,1.3279989999719,0.0268854000023566,0.99698889994761,0.0164746988006836,1
6,5,724,100,10,-45,-1.78318251666699,-1,0.500085299951024,0.0267582000233233,0.0968473000102676,0.0164746988006836,1
37,5,725,720,72,-45,-1.78318251666699,1,0.583522400003858,0.026880000019446,0.717338499962352,0.0164746988006836,0
36,5,726,700,70,-45,-1.78318251666699,1,1.00362150004366,0.0270788000198081,0.697058599966113,0.0164746988006836,0
12,5,727,220,22,45,-1.78318251666699,1,0.715722000051755,0.0268334000138566,0.216935499978717,0.0164746988006836,1
27,5,728,520,52,-45,-1.78318251666699,1,0.559758800023701,0.0268020000075921,0.517170900013298,0.0164746988006836,0
1,5,729,0,0,-45,-1.78318251666699,1,0.64388400001917,0.0262317000306211,0.00228809996042401,0.0164746988006836,0
16,5,730,300,30,45,-1.78318251666699,1,0.61972750001587,0.0269189000246115,0.297033299983013,0.0164746988006836,1
31,5,731,600,60,45,-1.78318251666699,1,0.607955200015567,0.0268905000411905,0.596977899956983,0.0164746988006836,1
11,5,732,200,20,-45,-1.78318251666699,-1,0.879235700005665,0.0270585000398569,0.197083899984136,0.0164746988006836,1
12,5,733,220,22,-45,-1.78318251666699,1,0.603619399946183,0.0268055999767967,0.216918700025417,0.0164746988006836,0
39,5,734,760,76,45,-1.78318251666699,1,0.59136080002645,0.0271035000332631,0.757083299977239,0.0164746988006836,1
9,5,735,160,16,-45,-1.78318251666699,1,0.728681400010828,0.0269774000043981,0.156281500007026,0.0164746988006836,0
29,5,736,560,56,-45,-1.78318251666699,-1,0.631915600039065,0.0268960000248626,0.557234399951994,0.0164746988006836,1
26,5,737,500,50,-45,-1.78318251666699,-1,0.692055099993013,0.026955800014548,0.497134800010826,0.0164746988006836,1
33,5,738,640,64,-45,-1.78318251666699,1,0.775204000005033,0.0270339000271633,0.637089699972421,0.0164746988006836,0
36,5,739,700,70,45,-1.78318251666699,-1,0.523610500036739,0.0269748000428081,0.697170800005551,0.0164746988006836,0
48,5,740,940,94,-45,-1.78318251666699,1,0.731657300028019,0.0270545000093989,0.936986599990632,0.0164746988006836,0
5,5,741,80,8,-45,-1.78318251666699,-1,1.54442529997323,0.0267019999446347,0.0767724000033922,0.0164746988006836,1
30,5,742,580,58,-45,-1.78318251666699,-1,1.69958750001388,0.0269168000086211,0.57729649997782,0.0164746988006836,1
44,5,743,860,86,-45,-1.78318251666699,-1,0.684509599988814,0.0268910999875516,0.8570074000163,0.0164746988006836,1
11,5,744,200,20,45,-1.78318251666699,1,0.656232799985446,0.0268298999872059,0.196983000030741,0.0164746988006836,1
37,5,745,720,72,45,-1.78318251666699,1,1.09473449998768,0.0269900999846868,0.717296799994074,0.0164746988006836,1
18,5,746,340,34,45,-1.78318251666699,1,0.707989600021392,0.0268068000441417,0.33683819998987,0.0164746988006836,1
25,5,747,480,48,45,-1.78318251666699,1,0.647580799995922,0.0270224999985658,0.477162399969529,0.0164746988006836,1
43,5,748,840,84,-45,-1.78318251666699,-1,0.735022699984256,0.0269972999813035,0.83693150000181,0.0164746988006836,1
40,5,749,780,78,45,-1.78318251666699,1,0.939613799971994,0.0268848999985494,0.777316599967889,0.0164746988006836,1
28,5,750,540,54,-45,-1.78318251666699,-1,0.55538209999213,0.0268859000061639,0.536975600000005,0.0164746988006836,1
50,5,751,980,98,45,-1.78318251666699,1,0.611797499994282,0.0267858000006527,0.977029800007585,0.0164746988006836,1
24,5,752,460,46,45,-1.78318251666699,-1,0.57192750001559,0.0268760000471957,0.456991099985316,0.0164746988006836,0
47,5,753,920,92,-45,-1.78318251666699,-1,0.976095399993937,0.026878000004217,0.917166400002316,0.0164746988006836,1
45,5,754,880,88,-45,-1.78318251666699,1,0.472060900006909,0.0269836999941617,0.876980400003958,0.0164746988006836,0
10,5,755,180,18,-45,-1.78318251666699,1,0.78838480002014,0.0267264000140131,0.17701099999249,0.0164746988006836,0
22,5,756,420,42,45,-1.78318251666699,-1,0.579968600010034,0.0269303999957629,0.416865900042467,0.0164746988006836,0
5,5,757,80,8,45,-1.78318251666699,1,0.632304499973543,0.0267571000149474,0.0767896000179462,0.0164746988006836,1
37,5,758,720,72,-45,-1.78318251666699,1,1.16015350003727,0.0270053999847732,0.716971800022293,0.0164746988006836,0
7,5,759,120,12,-45,-1.78318251666699,1,0.927251500019338,0.0270017999573611,0.11717939999653,0.0164746988006836,0
10,5,760,180,18,-45,-1.78318251666699,1,0.787104499991983,0.0268851000000723,0.177535799972247,0.0164746988006836,0
48,5,761,940,94,-45,-1.78318251666699,1,0.875590399955399,0.0270541000063531,0.937155499996152,0.0164746988006836,0
17,5,762,320,32,45,-1.78318251666699,-1,0.632480600033887,0.0268291999818757,0.316974000015762,0.0164746988006836,0
28,5,763,540,54,-45,-1.78318251666699,1,0.811799500021152,0.0269428999745287,0.537186599976849,0.0164746988006836,0
4,5,764,60,6,-45,-1.78318251666699,-1,0.460196500003804,0.0266378000378609,0.0569245999795385,0.0164746988006836,1
41,5,765,800,80,45,-1.78318251666699,-1,0.648010400007479,0.0270664999843575,0.796966499998234,0.0164746988006836,0
42,6,766,820,82,45,-1.78318251666699,1,3.28276129998267,0.0271341999759898,0.817428999987897,0.0164746988006836,1
13,6,767,240,24,-45,-1.78318251666699,1,8.15217110002413,0.0269883000291884,0.23716219997732,0.0164746988006836,0
23,6,768,440,44,45,-1.78318251666699,1,1.37575880001532,0.0270871999673545,0.437067300023045,0.0164746988006836,1
51,6,769,1000,100,45,-1.78318251666699,1,0.544236299989279,0.0269475000095554,0.997038899979088,0.0164746988006836,1
37,6,770,720,72,45,-1.78318251666699,1,0.936030799988657,0.0271476000198163,0.716928599984385,0.0164746988006836,1
10,6,771,180,18,45,-1.78318251666699,1,1.10765830002492,0.0267570000141859,0.176795199979097,0.0164746988006836,1
9,6,772,160,16,45,-1.78318251666699,1,0.536200500035193,0.0270102000213228,0.157013599993661,0.0164746988006836,1
24,6,773,460,46,45,-1.78318251666699,1,0.55527670000447,0.0269812000333332,0.45723130000988,0.0164746988006836,1
30,6,774,580,58,45,-1.78318251666699,-1,0.500760399969295,0.0268928000004962,0.576908099988941,0.0164746988006836,0
47,6,775,920,92,-45,-1.78318251666699,-1,1.0073824999854,0.0270128000411205,0.91705719998572,0.0164746988006836,1
15,6,776,280,28,-45,-1.78318251666699,1,1.10517970001092,0.026698799978476,0.276257699995767,0.0164746988006836,0
5,6,777,80,8,45,-1.78318251666699,-1,0.664120099972934,0.0268637000117451,0.0767418000032194,0.0164746988006836,0
31,6,778,600,60,-45,-1.78318251666699,-1,0.544336300052237,0.0269164000055753,0.596976899949368,0.0164746988006836,1
10,6,779,180,18,45,-1.78318251666699,1,0.580327000003308,0.0268025999539532,0.177016800036654,0.0164746988006836,1
4,6,780,60,6,-45,-1.78318251666699,1,0.667836500040721,0.0265129000181332,0.0566746999975294,0.0164746988006836,0
35,6,781,680,68,45,-1.78318251666699,1,0.528568499954417,0.0270156000042334,0.676973299996462,0.0164746988006836,1
1,6,782,0,0,-45,-1.78318251666699,1,0.532025799970143,0.0262397999758832,0.00221790000796318,0.0164746988006836,0
1,6,783,0,0,45,-1.78318251666699,1,0.819926600030158,0.0263140000170097,0.00214060000143945,0.0164746988006836,1
51,6,784,1000,100,-45,-1.78318251666699,1,0.624027600046247,0.0270148999989033,0.997091499972157,0.0164746988006836,0
6,6,785,100,10,-45,-1.78318251666699,1,0.56471559999045,0.0267850999953225,0.0969918000046164,0.0164746988006836,0
18,6,786,340,34,45,-1.78318251666699,1,0.499829500040505,0.0270326000172645,0.336934100021608,0.0164746988006836,1
47,6,787,920,92,-45,-1.78318251666699,-1,0.591926100023557,0.0269791000173427,0.916958699992392,0.0164746988006836,1
11,6,788,200,20,45,-1.78318251666699,1,0.624236000003293,0.0266924999887124,0.19688549998682,0.0164746988006836,1
9,6,789,160,16,-45,-1.78318251666699,1,0.503021900018211,0.0269935000105761,0.157214700011536,0.0164746988006836,0
38,6,790,740,74,45,-1.78318251666699,1,0.563149599998724,0.0270193999749608,0.737341500003822,0.0164746988006836,1
11,6,791,200,20,-45,-1.78318251666699,1,0.656882700044662,0.0267241999972612,0.196931899990886,0.0164746988006836,0
17,6,792,320,32,45,-1.78318251666699,1,0.519916900026146,0.026853299990762,0.316858100006357,0.0164746988006836,1
16,6,793,300,30,-45,-1.78318251666699,-1,0.555896399950143,0.0267965000239201,0.296990500006359,0.0164746988006836,1
2,6,794,20,2,-45,-1.78318251666699,1,0.661830800003372,0.0262072999612428,0.0161961000412703,0.0164746988006836,0
7,6,795,120,12,-45,-1.78318251666699,1,0.576326599984895,0.0267391999950632,0.116815300018061,0.0164746988006836,0
22,6,796,420,42,45,-1.78318251666699,1,0.580057999992277,0.0268488000147045,0.416878999967594,0.0164746988006836,1
45,6,797,880,88,-45,-1.78318251666699,1,1.33540390001144,0.0268348999670707,0.877101099991705,0.0164746988006836,0
16,6,798,300,30,45,-1.78318251666699,-1,0.412493799987715,0.0267258000094444,0.296864499978255,0.0164746988006836,0
33,6,799,640,64,-45,-1.78318251666699,1,0.615214599994943,0.0269833999918774,0.637172800023109,0.0164746988006836,0
43,6,800,840,84,45,-1.78318251666699,1,0.751520899997558,0.0267375999828801,0.837040200014599,0.0164746988006836,1
29,6,801,560,56,45,-1.78318251666699,1,1.22445809998317,0.0268984999856912,0.557008500036318,0.0164746988006836,1
34,6,802,660,66,45,-1.78318251666699,-1,0.483569100033492,0.026893200003542,0.657020599988755,0.0164746988006836,0
35,6,803,680,68,45,-1.78318251666699,-1,1.13616619998356,0.0268527999869548,0.676389700034633,0.0164746988006836,0
8,6,804,140,14,45,-1.78318251666699,-1,0.84441279998282,0.0268538999953307,0.136892399983481,0.0164746988006836,0
6,6,805,100,10,45,-1.78318251666699,1,0.739713500021026,0.0266823999700136,0.096929200051818,0.0164746988006836,1
24,6,806,460,46,-45,-1.78318251666699,-1,0.828334100020584,0.0268689999938942,0.457035500032362,0.0164746988006836,1
1,6,807,0,0,45,-1.78318251666699,1,0.483346300025005,0.0262704999768175,0.00190829997882247,0.0164746988006836,1
32,6,808,620,62,45,-1.78318251666699,1,0.619173799990676,0.026977600005921,0.616961799969431,0.0164746988006836,1
20,6,809,380,38,45,-1.78318251666699,-1,0.604869499977212,0.026318899996113,0.377292899996974,0.0164746988006836,0
46,6,810,900,90,45,-1.78318251666699,1,0.612700400000904,0.0268092000042088,0.896980100020301,0.0164746988006836,1
19,6,811,360,36,45,-1.78318251666699,-1,0.592266299994662,0.0268340999609791,0.357009700033814,0.0164746988006836,0
18,6,812,340,34,45,-1.78318251666699,1,0.531709300004877,0.0267859000014141,0.336820000025909,0.0164746988006836,1
38,6,813,740,74,45,-1.78318251666699,1,0.53215879999334,0.02688770001987,0.737112700007856,0.0164746988006836,1
4,6,814,60,6,-45,-1.78318251666699,-1,0.540984500024933,0.0265879999496974,0.0566640000324696,0.0164746988006836,1
48,6,815,940,94,45,-1.78318251666699,1,0.796331499994267,0.0268881999654695,0.93690540001262,0.0164746988006836,1
19,6,816,360,36,45,-1.78318251666699,-1,0.63992159999907,0.0268425000249408,0.356838199950289,0.0164746988006836,0
30,6,817,580,58,45,-1.78318251666699,-1,0.562889099994209,0.0270749000483193,0.577058299968485,0.0164746988006836,0
27,6,818,520,52,45,-1.78318251666699,1,0.479896400007419,0.0268795999581926,0.51699540001573,0.0164746988006836,1
37,6,819,720,72,45,-1.78318251666699,-1,1.16001409996534,0.0269824999850243,0.716962400008924,0.0164746988006836,0
30,6,820,580,58,45,-1.78318251666699,1,0.644262499990873,0.0268167000031099,0.576928800030146,0.0164746988006836,1
41,6,821,800,80,45,-1.78318251666699,-1,0.424071399960667,0.0270119000342675,0.797080699994694,0.0164746988006836,0
2,6,822,20,2,-45,-1.78318251666699,-1,0.949311600008514,0.0262445999542251,0.0161365000531077,0.0164746988006836,1
19,6,823,360,36,-45,-1.78318251666699,1,0.640280799998436,0.0269292999873869,0.357111000048462,0.0164746988006836,0
31,6,824,600,60,-45,-1.78318251666699,1,0.654799200012349,0.0271849000127986,0.597330699965823,0.0164746988006836,0
25,6,825,480,48,45,-1.78318251666699,-1,1.43168079998577,0.0269453999935649,0.477151600003708,0.0164746988006836,0
27,6,826,520,52,45,-1.78318251666699,-1,0.591213099949528,0.026950300030876,0.516971699951682,0.0164746988006836,0
42,6,827,820,82,45,-1.78318251666699,-1,0.820073399983812,0.0268996000522748,0.817048600001726,0.0164746988006836,0
27,6,828,520,52,45,-1.78318251666699,1,0.496234399965033,0.0271188999759033,0.517036700039171,0.0164746988006836,1
31,6,829,600,60,-45,-1.78318251666699,1,0.496115499990992,0.0270453999983147,0.597164599981625,0.0164746988006836,0
21,6,830,400,40,-45,-1.78318251666699,1,0.599861500028055,0.0270038000307977,0.396957099961583,0.0164746988006836,0
15,6,831,280,28,45,-1.78318251666699,1,0.560338500014041,0.0267685000435449,0.276939800009131,0.0164746988006836,1
4,6,832,60,6,45,-1.78318251666699,1,0.54016249999404,0.0265202000155114,0.0566113999811932,0.0164746988006836,1
49,6,833,960,96,-45,-1.78318251666699,-1,0.487506599980406,0.0269199999747798,0.957091899996158,0.0164746988006836,1
16,6,834,300,30,45,-1.78318251666699,-1,0.459709400020074,0.0270587999839336,0.297157200053334,0.0164746988006836,0
36,6,835,700,70,45,-1.78318251666699,1,0.540550599980634,0.0268976000370458,0.697084999992512,0.0164746988006836,1
46,6,836,900,90,45,-1.78318251666699,1,0.740257300029043,0.0269831999903545,0.897173300036229,0.0164746988006836,1
45,6,837,880,88,-45,-1.78318251666699,-1,0.455957400030456,0.0269504000316374,0.877253099984955,0.0164746988006836,1
45,6,838,880,88,45,-1.78318251666699,1,0.487107899971306,0.0268888000282459,0.876955899992026,0.0164746988006836,1
18,6,839,340,34,45,-1.78318251666699,1,0.531336600019131,0.0269950999645516,0.33696530002635,0.0164746988006836,1
3,6,840,40,4,-45,-1.78318251666699,-1,0.609256899973843,0.0263809000025503,0.0362154999747872,0.0164746988006836,1
5,6,841,80,8,-45,-1.78318251666699,-1,0.584199399978388,0.0268502000253648,0.0767469999846071,0.0164746988006836,1
23,6,842,440,44,45,-1.78318251666699,1,0.575281500001438,0.0269901999854483,0.436970399983693,0.0164746988006836,1
26,6,843,500,50,-45,-1.78318251666699,1,0.803732700005639,0.0269151999964379,0.497015200031456,0.0164746988006836,0
44,6,844,860,86,-45,-1.78318251666699,-1,0.619254000019282,0.027012399979867,0.857003399985842,0.0164746988006836,1
37,6,845,720,72,-45,-1.78318251666699,1,0.887640499975532,0.0269646999659017,0.716944699990563,0.0164746988006836,0
26,6,846,500,50,-45,-1.78318251666699,-1,0.675117800012231,0.0268394000013359,0.497238999989349,0.0164746988006836,1
36,6,847,700,70,-45,-1.78318251666699,1,0.875442999997176,0.0270929000107571,0.697238699998707,0.0164746988006836,0
22,6,848,420,42,-45,-1.78318251666699,1,0.851891900005285,0.0268433999735862,0.416948900034185,0.0164746988006836,0
28,6,849,540,54,-45,-1.78318251666699,1,0.507997100008652,0.0271065999986604,0.536970400018618,0.0164746988006836,0
2,6,850,20,2,-45,-1.78318251666699,1,0.86923900002148,0.0261086000245996,0.0161320999613963,0.0164746988006836,0
48,6,851,940,94,-45,-1.78318251666699,1,0.651636999973562,0.0269634000142105,0.937103600008413,0.0164746988006836,0
25,6,852,480,48,-45,-1.78318251666699,1,0.696254800015595,0.0268821000354365,0.476994599972386,0.0164746988006836,0
29,6,853,560,56,-45,-1.78318251666699,1,0.567367199982982,0.0270263000275008,0.557135300012305,0.0164746988006836,0
33,6,854,640,64,-45,-1.78318251666699,-1,0.455845499993302,0.0269802000257187,0.636947399994824,0.0164746988006836,1
50,6,855,980,98,45,-1.78318251666699,1,2.09948380000424,0.0271252999664284,0.976949000032619,0.0164746988006836,1
11,6,856,200,20,-45,-1.78318251666699,-1,0.56046609999612,0.0268460999941453,0.197113799978979,0.0164746988006836,1
3,6,857,40,4,-45,-1.78318251666699,-1,1.04088739998406,0.0262692000251263,0.0362791999941692,0.0164746988006836,1
7,6,858,120,12,-45,-1.78318251666699,-1,0.592137300001923,0.0268008999992162,0.116844400006812,0.0164746988006836,1
20,6,859,380,38,-45,-1.78318251666699,-1,0.571409599971958,0.0269693000009283,0.377033400000073,0.0164746988006836,1
41,6,860,800,80,-45,-1.78318251666699,1,0.823688899981789,0.0269117000279948,0.797048299980816,0.0164746988006836,0
