isi,block,trial,isi_ms,isi_frames,theta,log_cnt,resp,rt,stim_duration,blank_duration,cnt,correct
27,1,1,520,52,-45,-1.84723196648945,-1,0.521767300000192,0.0482637999998587,0.525745600000391,0.0142156929205026,1
8,1,2,140,14,-45,-1.84723196648945,-1,0.393934700000045,0.0448174376656425,0.137034162334203,0.0142156929205026,1
46,1,3,900,90,45,-1.84723196648945,1,0.468358999999964,0.051339299999654,0.903918500000145,0.0142156929205026,1
1,1,4,0,0,-45,-1.84723196648945,-1,0.49903600000016,0.0430882000000565,0.00177949999988414,0.0142156929205026,1
8,1,5,140,14,45,-1.84723196648945,1,0.42349460000014,0.0452924051983246,0.138759194801423,0.0142156929205026,1
6,1,6,100,10,45,-1.84723196648945,1,0.486860699999852,0.0407243999998173,0.0960068999997929,0.0142156929205026,1
2,1,7,20,2,45,-1.84723196648945,1,0.436635399999886,0.0439696999997068,0.0154685000002246,0.0142156929205026,1
19,1,8,360,36,45,-1.84723196648945,1,0.711712000000261,0.0484106999997493,0.360042400000111,0.0142156929205026,1
26,1,9,500,50,45,-1.84723196648945,1,0.419102000000294,0.0439473090978026,0.497139190902089,0.0142156929205026,1
22,1,10,420,42,45,-1.84723196648945,-1,0.620301200000085,0.0481715999999324,0.419517400000132,0.0142156929205026,0
13,1,11,240,24,-45,-1.84723196648945,1,0.500612799999999,0.044212902599611,0.239435797400347,0.0142156929205026,0
25,1,12,480,48,-45,-1.84723196648945,-1,0.495646400000169,0.0484504999999444,0.480124499999874,0.0142156929205026,1
30,1,13,580,58,45,-1.84723196648945,1,0.418803699999899,0.0440795428644378,0.577262057135613,0.0142156929205026,1
9,1,14,160,16,45,-1.84723196648945,1,0.506675300000097,0.04075899999998,0.156532399999833,0.0142156929205026,1
3,1,15,40,4,-45,-1.84723196648945,-1,0.467079600000034,0.0413973999998234,0.0355655000003026,0.0142156929205026,1
19,1,16,360,36,45,-1.84723196648945,1,0.415477899999587,0.0437047701325355,0.356988329867818,0.0142156929205026,1
4,1,17,60,6,-45,-1.84723196648945,1,0.508540799999992,0.0499133999996957,0.0654297999999471,0.0142156929205026,0
30,1,18,580,58,45,-1.84723196648945,-1,0.465983099999903,0.051263100000142,0.586393999999927,0.0142156929205026,0
35,1,19,680,68,-45,-1.84723196648945,-1,0.451106099999834,0.049320500000249,0.683880399999907,0.0142156929205026,1
4,1,20,60,6,-45,-1.84723196648945,-1,0.444398500000261,0.0502470999999787,0.0655659999997624,0.0142156929205026,1
45,1,21,880,88,45,-1.84723196648945,1,0.489499499999965,0.0409680753309658,0.877326524668661,0.0142156929205026,1
23,1,22,440,44,45,-1.84723196648945,1,0.378419099999974,0.0468495000000075,0.438430300000164,0.0142156929205026,1
41,1,23,800,80,45,-1.84723196648945,-1,0.376531500000056,0.0490592000001016,0.806483300000309,0.0142156929205026,0
45,1,24,880,88,45,-1.84723196648945,1,0.534535600000254,0.0442127363662621,0.877380363634074,0.0142156929205026,1
13,1,25,240,24,45,-1.84723196648945,-1,0.568019600000298,0.0507746999996925,0.245093600000018,0.0142156929205026,0
19,1,26,360,36,-45,-1.84723196648945,-1,0.540712099999837,0.0437850999996954,0.359144400000332,0.0142156929205026,1
40,1,27,780,78,45,-1.84723196648945,1,0.525063999999929,0.0414957090974895,0.777557590902234,0.0142156929205026,1
37,1,28,720,72,-45,-1.84723196648945,-1,0.498846400000275,0.0450356000001193,0.719706899999892,0.0142156929205026,1
48,1,29,940,94,45,-1.84723196648945,1,0.439769099999921,0.0452441000002182,0.939514999999574,0.0142156929205026,1
15,1,30,280,28,45,-1.84723196648945,-1,0.67271269999992,0.0509468000000197,0.283950999999888,0.0142156929205026,0
43,1,31,840,84,45,-1.84723196648945,1,0.446402100000341,0.0445036051987699,0.837211794801533,0.0142156929205026,1
51,1,32,1000,100,-45,-1.84723196648945,-1,0.415909400000146,0.0509185000000798,1.00480629999993,0.0142156929205026,1
49,1,33,960,96,-45,-1.84723196648945,1,0.504715900000065,0.0512395999999171,0.963986700000078,0.0142156929205026,0
37,1,34,720,72,45,-1.84723196648945,1,0.514628599999924,0.0454706999998962,0.719938100000036,0.0142156929205026,1
33,1,35,640,64,45,-1.84723196648945,1,0.491032599999926,0.0509880000004159,0.642217699999946,0.0142156929205026,1
20,1,36,380,38,45,-1.84723196648945,-1,0.559239899999739,0.0493960999997398,0.383107000000109,0.0142156929205026,0
3,1,37,40,4,-45,-1.84723196648945,-1,0.515899899999567,0.0508377000001019,0.0412130999998226,0.0142156929205026,1
4,1,38,60,6,45,-1.84723196648945,1,0.415620799999942,0.050767800000358,0.0617138999996314,0.0142156929205026,1
50,1,39,980,98,45,-1.84723196648945,-1,0.452149799999916,0.0427099701319094,0.977214929867841,0.0142156929205026,0
20,1,40,380,38,45,-1.84723196648945,-1,0.37726930000008,0.0450976337660904,0.377596466233626,0.0142156929205026,0
26,1,41,500,50,45,-1.84723196648945,-1,0.417334600000231,0.0447126701324123,0.497603129867457,0.0142156929205026,0
51,1,42,1000,100,-45,-1.84723196648945,-1,0.627218200000243,0.0496276999997463,1.00349760000017,0.0142156929205026,1
16,1,43,300,30,45,-1.84723196648945,-1,0.479332399999748,0.051081300000078,0.301653199999691,0.0142156929205026,0
12,1,44,220,22,45,-1.84723196648945,1,0.52497429999994,0.041537299999618,0.216822300000331,0.0142156929205026,1
16,1,45,300,30,45,-1.84723196648945,1,0.444447599999876,0.0495495999998639,0.305594600000404,0.0142156929205026,1
5,1,46,80,8,-45,-1.84723196648945,1,0.491129800000181,0.0510527999999795,0.0814940000000206,0.0142156929205026,0
12,1,47,220,22,45,-1.84723196648945,1,0.432678000000124,0.0482566000000588,0.222705000000133,0.0142156929205026,1
44,1,48,860,86,45,-1.84723196648945,1,0.48926530000017,0.0435850363655845,0.859393963634375,0.0142156929205026,1
30,1,49,580,58,-45,-1.84723196648945,-1,0.596642200000133,0.0494752999998127,0.585890700000164,0.0142156929205026,1
25,1,50,480,48,45,-1.84723196648945,-1,0.606589099999837,0.048699100000249,0.480704999999944,0.0142156929205026,0
20,1,51,380,38,45,-1.84723196648945,1,0.480710999999701,0.0497961999999461,0.381494700000076,0.0142156929205026,1
50,1,52,980,98,45,-1.84723196648945,1,0.511137200000121,0.0453491714324628,0.97956602856766,0.0142156929205026,1
35,1,53,680,68,-45,-1.84723196648945,1,0.646569399999862,0.0484453389658484,0.680527461034217,0.0142156929205026,0
43,1,54,840,84,-45,-1.84723196648945,-1,0.659895799999958,0.0496775999999954,0.842383400000017,0.0142156929205026,1
27,1,55,520,52,-45,-1.84723196648945,-1,0.467535700000099,0.0497749999999542,0.522753799999919,0.0142156929205026,1
9,1,56,160,16,45,-1.84723196648945,1,0.551869299999908,0.0434748000002401,0.156611399999747,0.0142156929205026,1
46,1,57,900,90,-45,-1.84723196648945,1,0.514560499999789,0.0439025363657493,0.89720536363393,0.0142156929205026,0
2,1,58,20,2,45,-1.84723196648945,1,0.535341999999673,0.0412244999997711,0.0156172000001789,0.0142156929205026,1
47,1,59,920,92,45,-1.84723196648945,1,0.533723399999872,0.0489996999999676,0.921387200000026,0.0142156929205026,1
11,1,60,200,20,-45,-1.84723196648945,-1,0.433980399999655,0.0499665000002096,0.203730799999903,0.0142156929205026,1
36,1,61,700,70,45,-1.84723196648945,1,0.507573900000352,0.0434648701320839,0.697231729867781,0.0142156929205026,1
38,1,62,740,74,-45,-1.84723196648945,-1,0.610974499999884,0.0436037999998007,0.737334000000374,0.0142156929205026,1
17,1,63,320,32,45,-1.84723196648945,-1,0.628401899999972,0.0445023000002038,0.318759100000079,0.0142156929205026,0
39,1,64,760,76,45,-1.84723196648945,1,0.499263799999881,0.0495012000001225,0.762756999999965,0.0142156929205026,1
2,1,65,20,2,-45,-1.84723196648945,-1,0.506111600000168,0.0501196597347189,0.0199668000000202,0.0142156929205026,1
34,1,66,660,66,-45,-1.84723196648945,-1,0.74613139999974,0.0493069999997715,0.660604800000328,0.0142156929205026,1
14,1,67,260,26,-45,-1.84723196648945,1,0.541024799999832,0.0478441000000203,0.259280199999921,0.0142156929205026,0
50,1,68,980,98,-45,-1.84723196648945,1,0.47143189999997,0.0497083000000202,0.982809500000258,0.0142156929205026,0
31,1,69,600,60,-45,-1.84723196648945,-1,0.448299000000134,0.0497713597346774,0.606054600000334,0.0142156929205026,1
9,1,70,160,16,-45,-1.84723196648945,-1,0.48204080000005,0.0473752688330933,0.158707131166921,0.0142156929205026,1
35,1,71,680,68,-45,-1.84723196648945,-1,0.464115599999786,0.0496356000003289,0.686434599999757,0.0142156929205026,1
11,1,72,200,20,45,-1.84723196648945,-1,0.463372000000163,0.0426718376652389,0.197972562334598,0.0142156929205026,0
3,1,73,40,4,45,-1.84723196648945,-1,0.588260499999706,0.0448581999999078,0.0387159000001702,0.0142156929205026,0
14,1,74,260,26,45,-1.84723196648945,-1,0.79154490000019,0.0505318000000443,0.261859400000048,0.0142156929205026,0
33,1,75,640,64,-45,-1.84723196648945,-1,0.470062899999903,0.043538644164073,0.638611255835713,0.0142156929205026,1
37,1,76,720,72,45,-1.84723196648945,-1,0.569165200000043,0.0414597051985766,0.717190794801354,0.0142156929205026,0
42,1,77,820,82,45,-1.84723196648945,1,0.486561100000017,0.0497660000000906,0.823844200000167,0.0142156929205026,1
33,1,78,640,64,45,-1.84723196648945,1,0.472512599999845,0.0496349999998529,0.646000600000207,0.0142156929205026,1
23,1,79,440,44,45,-1.84723196648945,1,1.10562419999997,0.0414010051986224,0.436674894801399,0.0142156929205026,1
51,1,80,1000,100,-45,-1.84723196648945,-1,0.485634199999822,0.0494631000001391,1.00127320000001,0.0142156929205026,1
29,1,81,560,56,45,-1.84723196648945,-1,0.449114000000009,0.0399586999997155,0.567176500000187,0.0142156929205026,0
17,1,82,320,32,45,-1.84723196648945,-1,0.473354899999777,0.0412856766311052,0.317094023369009,0.0142156929205026,0
16,1,83,300,30,-45,-1.84723196648945,-1,0.403755999999703,0.0492073727318711,0.29890612726831,0.0142156929205026,1
46,1,84,900,90,-45,-1.84723196648945,1,0.669850199999928,0.0458137428640839,0.900309057135928,0.0142156929205026,0
36,1,85,700,70,45,-1.84723196648945,1,0.506737800000337,0.0442606000001433,0.697156000000177,0.0142156929205026,1
32,1,86,620,62,-45,-1.84723196648945,-1,0.456827399999838,0.044722911696681,0.618009588303266,0.0142156929205026,1
36,1,87,700,70,45,-1.84723196648945,1,0.508070499999576,0.0428255688329955,0.697238431167079,0.0142156929205026,1
49,1,88,960,96,45,-1.84723196648945,1,0.543290299999626,0.0483101051986523,0.960340094801268,0.0142156929205026,1
5,1,89,80,8,-45,-1.84723196648945,-1,0.447707699999683,0.0484345999998368,0.0795886000000792,0.0142156929205026,1
22,1,90,420,42,45,-1.84723196648945,-1,0.708019899999726,0.0503354000002219,0.425251899999694,0.0142156929205026,0
42,1,91,820,82,-45,-1.84723196648945,-1,0.402796200000012,0.0511957999997321,0.825981100000263,0.0142156929205026,1
1,1,92,0,0,45,-1.84723196648945,1,0.56613950000019,0.0406737999996949,0.00158620000001974,0.0142156929205026,1
41,1,93,800,80,-45,-1.84723196648945,-1,0.487574700000096,0.0495200999998815,0.806942100000015,0.0142156929205026,1
24,1,94,460,46,45,-1.84723196648945,1,0.487816500000008,0.045195179230177,0.459206720769998,0.0142156929205026,1
32,1,95,620,62,45,-1.84723196648945,-1,0.383428700000422,0.0494887999998355,0.623231800000212,0.0142156929205026,0
29,1,96,560,56,-45,-1.84723196648945,1,0.454276299999947,0.0439762441642415,0.557305355835979,0.0142156929205026,0
32,1,97,620,62,45,-1.84723196648945,-1,0.493674599999849,0.0504295000000639,0.623963999999887,0.0142156929205026,0
28,1,98,540,54,-45,-1.84723196648945,-1,0.541545199999746,0.0416344999998728,0.537076099999922,0.0142156929205026,1
47,1,99,920,92,-45,-1.84723196648945,1,0.549161399999775,0.0495453999997153,0.921070599999894,0.0142156929205026,0
43,1,100,840,84,-45,-1.84723196648945,1,0.517886199999793,0.0495275000002948,0.84059649999972,0.0142156929205026,0
10,1,101,180,18,-45,-1.84723196648945,1,0.454818600000181,0.0497424000000137,0.183645500000239,0.0142156929205026,0
44,1,102,860,86,-45,-1.84723196648945,-1,0.393631700000242,0.0457838999996056,0.856741000000056,0.0142156929205026,1
48,1,103,940,94,45,-1.84723196648945,1,0.41436079999994,0.0415453999999045,0.936009700000341,0.0142156929205026,1
5,1,104,80,8,45,-1.84723196648945,1,0.50443389999964,0.0438567000001058,0.0755008999999518,0.0142156929205026,1
39,1,105,760,76,-45,-1.84723196648945,-1,0.467669300000125,0.0503696000000673,0.76227820000031,0.0142156929205026,1
25,1,106,480,48,45,-1.84723196648945,1,0.495907100000295,0.0482568337661178,0.479722766233863,0.0142156929205026,1
28,1,107,540,54,-45,-1.84723196648945,1,0.430484099999831,0.0508135999998558,0.542690100000073,0.0142156929205026,0
15,1,108,280,28,-45,-1.84723196648945,-1,0.45490239999981,0.0489850000003571,0.280285800000001,0.0142156929205026,1
34,1,109,660,66,45,-1.84723196648945,1,0.46984139999995,0.0411650999999438,0.656951500000105,0.0142156929205026,1
47,1,110,920,92,-45,-1.84723196648945,1,0.513498700000127,0.041245699999763,0.917245399999956,0.0142156929205026,0
29,1,111,560,56,-45,-1.84723196648945,-1,0.537017999999989,0.0420789999998306,0.556828499999938,0.0142156929205026,1
38,1,112,740,74,-45,-1.84723196648945,-1,0.507961899999827,0.0477350000001024,0.739848700000039,0.0142156929205026,1
34,1,113,660,66,-45,-1.84723196648945,1,0.435935499999687,0.0429190441641367,0.657282955835853,0.0142156929205026,0
40,1,114,780,78,-45,-1.84723196648945,1,0.47556110000005,0.0507441999998264,0.785201500000312,0.0142156929205026,0
1,1,115,0,0,45,-1.84723196648945,1,0.628754800000024,0.0413669999998092,0.00149379999993471,0.0142156929205026,1
27,1,116,520,52,-45,-1.84723196648945,-1,0.495636900000136,0.0510248000000502,0.525625499999933,0.0142156929205026,1
6,1,117,100,10,-45,-1.84723196648945,1,0.437245399999938,0.0507964999997057,0.10361550000016,0.0142156929205026,0
10,1,118,180,18,-45,-1.84723196648945,1,0.424215200000162,0.0494432999998935,0.182464100000288,0.0142156929205026,0
22,1,119,420,42,45,-1.84723196648945,1,0.421100700000352,0.0417191000001367,0.416743000000224,0.0142156929205026,1
7,1,120,120,12,45,-1.84723196648945,1,0.465804299999945,0.0414102999998249,0.116619599999922,0.0142156929205026,1
10,1,121,180,18,45,-1.84723196648945,1,0.372326100000009,0.0503234999996494,0.185389100000066,0.0142156929205026,1
7,1,122,120,12,45,-1.84723196648945,-1,0.431340699999964,0.0428910688324322,0.117460331167422,0.0142156929205026,0
45,1,123,880,88,-45,-1.84723196648945,-1,0.408976700000039,0.049803499999598,0.885186100000283,0.0142156929205026,1
21,1,124,400,40,-45,-1.84723196648945,-1,0.503415199999836,0.0440975999999864,0.39678640000011,0.0142156929205026,1
42,1,125,820,82,-45,-1.84723196648945,1,0.547030599999744,0.0509758999996848,0.825638000000254,0.0142156929205026,0
14,1,126,260,26,-45,-1.84723196648945,-1,0.469582400000036,0.0411645441640758,0.257451355835656,0.0142156929205026,1
41,1,127,800,80,45,-1.84723196648945,1,0.43811659999983,0.0432996714321234,0.798634228568062,0.0142156929205026,1
31,1,128,600,60,-45,-1.84723196648945,-1,0.582298600000286,0.0490334000000985,0.600546900000154,0.0142156929205026,1
15,1,129,280,28,-45,-1.84723196648945,-1,0.560162599999785,0.0511148000000503,0.284638099999938,0.0142156929205026,1
18,1,130,340,34,-45,-1.84723196648945,-1,0.45087199999989,0.0443355740312654,0.336914725968654,0.0142156929205026,1
7,1,131,120,12,-45,-1.84723196648945,-1,0.511799800000063,0.0510604000000967,0.125102200000129,0.0142156929205026,1
44,1,132,860,86,-45,-1.84723196648945,-1,0.476221800000076,0.0423331688325561,0.857315031167218,0.0142156929205026,1
18,1,133,340,34,45,-1.84723196648945,1,0.5302843999998,0.0445983999998134,0.337047900000016,0.0142156929205026,1
21,1,134,400,40,45,-1.84723196648945,-1,0.599595399999998,0.0436159077980847,0.396521792201838,0.0142156929205026,0
21,1,135,400,40,-45,-1.84723196648945,-1,0.424350800000411,0.0497095999999146,0.405793699999776,0.0142156929205026,1
39,1,136,760,76,45,-1.84723196648945,1,0.464781300000141,0.0506550000000061,0.764619399999901,0.0142156929205026,1
49,1,137,960,96,-45,-1.84723196648945,-1,1.62534319999986,0.041515100000197,0.956907299999784,0.0142156929205026,1
31,1,138,600,60,45,-1.84723196648945,-1,0.517270300000291,0.0491499999998268,0.60145730000022,0.0142156929205026,0
8,1,139,140,14,45,-1.84723196648945,1,0.404883200000313,0.047877561034511,0.13907270000027,0.0142156929205026,1
23,1,140,440,44,45,-1.84723196648945,-1,0.445742300000347,0.0436973000000762,0.438720199999807,0.0142156929205026,0
24,1,141,460,46,45,-1.84723196648945,-1,0.589600400000108,0.0502089999999953,0.46406479999996,0.0142156929205026,0
48,1,142,940,94,45,-1.84723196648945,1,0.444848699999966,0.0421550000000934,0.93690880000031,0.0142156929205026,1
24,1,143,460,46,-45,-1.84723196648945,-1,0.579743300000246,0.0482253999998647,0.459962899999937,0.0142156929205026,1
28,1,144,540,54,-45,-1.84723196648945,1,0.391066300000148,0.0455665363660955,0.539017763634092,0.0142156929205026,0
26,1,145,500,50,-45,-1.84723196648945,-1,0.36834060000001,0.0458061000003909,0.497928999999658,0.0142156929205026,1
12,1,146,220,22,-45,-1.84723196648945,-1,0.394647600000098,0.044157009097944,0.217073190902283,0.0142156929205026,1
38,1,147,740,74,-45,-1.84723196648945,-1,0.388547799999742,0.0419736766307324,0.737307523369054,0.0142156929205026,1
6,1,148,100,10,45,-1.84723196648945,1,0.447343400000136,0.045410237665692,0.0991442623344483,0.0142156929205026,1
40,1,149,780,78,45,-1.84723196648945,1,0.412284999999883,0.0503840999999738,0.785234100000253,0.0142156929205026,1
17,1,150,320,32,45,-1.84723196648945,1,0.456697800000256,0.048901499999829,0.326341200000115,0.0142156929205026,1
18,1,151,340,34,-45,-1.84723196648945,-1,0.425929200000155,0.0489351000001079,0.341025299999728,0.0142156929205026,1
13,1,152,240,24,45,-1.84723196648945,1,0.430773199999749,0.048798700000134,0.240685899999789,0.0142156929205026,1
11,1,153,200,20,45,-1.84723196648945,-1,0.388130399999682,0.0504722999999103,0.201414600000135,0.0142156929205026,0
6,2,154,100,10,-45,-1.84723196648945,-1,0.394531800000095,0.0489087000000836,0.100666099999671,0.0142156929205026,1
40,2,155,780,78,45,-1.84723196648945,1,0.479588499999863,0.0498865999998088,0.78244500000028,0.0142156929205026,1
10,2,156,180,18,-45,-1.84723196648945,1,0.597421299999951,0.0495466000002125,0.185077599999659,0.0142156929205026,0
50,2,157,980,98,-45,-1.84723196648945,1,0.422451000000365,0.0500851000001603,0.983820299999934,0.0142156929205026,0
20,2,158,380,38,-45,-1.84723196648945,-1,0.461026599999968,0.0416825441643596,0.377085755835651,0.0142156929205026,1
35,2,159,680,68,45,-1.84723196648945,1,0.378562299999885,0.0450712000001658,0.680042599999979,0.0142156929205026,1
46,2,160,900,90,45,-1.84723196648945,1,0.527930199999901,0.0450899701322669,0.898941029867729,0.0142156929205026,1
39,2,161,760,76,45,-1.84723196648945,1,0.56296280000015,0.0411159999998745,0.755997900000239,0.0142156929205026,1
10,2,162,180,18,-45,-1.84723196648945,1,0.533994699999766,0.050509200000306,0.18321190000006,0.0142156929205026,0
23,2,163,440,44,-45,-1.84723196648945,-1,0.451100600000245,0.050451399999929,0.442576299999928,0.0142156929205026,1
23,2,164,440,44,45,-1.84723196648945,1,0.579638499999874,0.0508801000000858,0.441766500000085,0.0142156929205026,1
24,2,165,460,46,-45,-1.84723196648945,1,0.495844600000055,0.049332399999912,0.462608400000136,0.0142156929205026,0
46,2,166,900,90,-45,-1.84723196648945,-1,0.964652300000125,0.0419018000002325,0.89730469999995,0.0142156929205026,1
44,2,167,860,86,45,-1.84723196648945,1,0.599138299999595,0.0449470000003203,0.85970129999987,0.0142156929205026,1
1,2,168,0,0,-45,-1.84723196648945,-1,0.489855799999987,0.0400653000001512,0.0139834999999948,0.0142156929205026,1
14,2,169,260,26,45,-1.84723196648945,1,0.45113050000009,0.0439536701323959,0.256897829867739,0.0142156929205026,1
22,2,170,420,42,45,-1.84723196648945,1,0.499614100000144,0.0502756000000772,0.425838499999827,0.0142156929205026,1
37,2,171,720,72,45,-1.84723196648945,1,0.536005699999805,0.0421668454637256,0.717354054536372,0.0142156929205026,1
26,2,172,500,50,45,-1.84723196648945,1,0.447823900000003,0.0448778999998467,0.499191800000062,0.0142156929205026,1
44,2,173,860,86,45,-1.84723196648945,1,0.445102399999996,0.0509775000000445,0.864188199999717,0.0142156929205026,1
3,2,174,40,4,-45,-1.84723196648945,-1,0.504054500000166,0.0400757000002159,0.0479110999999648,0.0142156929205026,1
18,2,175,340,34,45,-1.84723196648945,1,0.402238899999702,0.0445893415644605,0.337084258435425,0.0142156929205026,1
14,2,176,260,26,-45,-1.84723196648945,-1,0.459857199999988,0.0478361999998924,0.260186699999849,0.0142156929205026,1
50,2,177,980,98,45,-1.84723196648945,1,0.468831800000316,0.0505613999998786,0.98419690000037,0.0142156929205026,1
19,2,178,360,36,-45,-1.84723196648945,1,0.432630400000107,0.0512651000003643,0.364285999999993,0.0142156929205026,0
5,2,179,80,8,-45,-1.84723196648945,-1,0.454281999999694,0.0436302000002797,0.0778949999998986,0.0142156929205026,1
47,2,180,920,92,-45,-1.84723196648945,1,0.418556300000091,0.0507491000003029,0.922767399999884,0.0142156929205026,0
13,2,181,240,24,-45,-1.84723196648945,1,0.690526500000033,0.0465360000002875,0.23881399999982,0.0142156929205026,0
41,2,182,800,80,45,-1.84723196648945,1,0.442004500000166,0.0417695000001004,0.796227799999997,0.0142156929205026,1
45,2,183,880,88,45,-1.84723196648945,1,0.499734399999852,0.0456174389655644,0.878788961034388,0.0142156929205026,1
36,2,184,700,70,-45,-1.84723196648945,-1,0.401489100000163,0.0491959000000861,0.700927899999897,0.0142156929205026,1
40,2,185,780,78,45,-1.84723196648945,-1,0.423143799999707,0.0446913999999197,0.780120200000056,0.0142156929205026,0
29,2,186,560,56,-45,-1.84723196648945,-1,0.407458499999848,0.0432980000000498,0.557014499999696,0.0142156929205026,1
47,2,187,920,92,-45,-1.84723196648945,-1,0.414063899999746,0.0440099116967758,0.91785238830289,0.0142156929205026,1
17,2,188,320,32,-45,-1.84723196648945,-1,0.416075399999954,0.0484200999999302,0.319573700000092,0.0142156929205026,1
29,2,189,560,56,-45,-1.84723196648945,1,0.390320200000133,0.0439721012994596,0.557398298700718,0.0142156929205026,0
48,2,190,940,94,-45,-1.84723196648945,1,0.557875500000137,0.040945499999907,0.937097200000153,0.0142156929205026,0
12,2,191,220,22,-45,-1.84723196648945,-1,0.407003700000132,0.0451275753307527,0.219623124668942,0.0142156929205026,1
22,2,192,420,42,45,-1.84723196648945,-1,0.403524899999866,0.0439924000002065,0.416707400000178,0.0142156929205026,0
43,2,193,840,84,45,-1.84723196648945,-1,0.494497200000296,0.0441769999997632,0.837256100000104,0.0142156929205026,0
4,2,194,60,6,45,-1.84723196648945,1,0.509549200000038,0.0408459000000221,0.0732201999999234,0.0142156929205026,1
9,2,195,160,16,45,-1.84723196648945,1,0.471034000000145,0.0511654999995699,0.165549300000293,0.0142156929205026,1
34,2,196,660,66,45,-1.84723196648945,1,0.389040300000033,0.0510208000000603,0.663770200000272,0.0142156929205026,1
9,2,197,160,16,-45,-1.84723196648945,1,0.444867400000021,0.0496072999999342,0.161175100000037,0.0142156929205026,0
31,2,198,600,60,45,-1.84723196648945,1,0.450520800000049,0.0407333000002836,0.597094899999774,0.0142156929205026,1
12,2,199,220,22,45,-1.84723196648945,1,0.432690000000093,0.0496449999996003,0.221946300000127,0.0142156929205026,1
21,2,200,400,40,45,-1.84723196648945,-1,0.450249500000155,0.0469823999997061,0.398709999999937,0.0142156929205026,0
9,2,201,160,16,-45,-1.84723196648945,-1,0.426142499999969,0.041088899999977,0.156719300000077,0.0142156929205026,1
35,2,202,680,68,-45,-1.84723196648945,-1,0.364205299999867,0.045677699999942,0.677732099999957,0.0142156929205026,1
45,2,203,880,88,-45,-1.84723196648945,-1,0.465642200000275,0.0472899999999754,0.879262299999937,0.0142156929205026,1
15,2,204,280,28,45,-1.84723196648945,1,0.438978700000007,0.0487906000003022,0.28009129999964,0.0142156929205026,1
27,2,205,520,52,45,-1.84723196648945,1,0.400363499999912,0.0419888012997944,0.517377398700319,0.0142156929205026,1
27,2,206,520,52,45,-1.84723196648945,-1,0.353745100000197,0.0412430999999742,0.517027700000199,0.0142156929205026,0
49,2,207,960,96,-45,-1.84723196648945,-1,0.547018899999784,0.0451285688327516,0.959779631167294,0.0142156929205026,1
51,2,208,1000,100,45,-1.84723196648945,1,0.456499200000053,0.0400118999996266,1.00704570000016,0.0142156929205026,1
32,2,209,620,62,45,-1.84723196648945,1,0.843437100000301,0.0434313999999176,0.617059200000313,0.0142156929205026,1
41,2,210,800,80,-45,-1.84723196648945,-1,0.39320029999999,0.0417664999999943,0.797097300000132,0.0142156929205026,1
40,2,211,780,78,45,-1.84723196648945,1,0.425153799999862,0.0439900999999736,0.778849799999989,0.0142156929205026,1
50,2,212,980,98,45,-1.84723196648945,1,0.436016399999971,0.0496992999997019,0.986440099999982,0.0142156929205026,1
28,2,213,540,54,-45,-1.84723196648945,-1,0.53511780000008,0.0452175000000352,0.539863500000138,0.0142156929205026,1
34,2,214,660,66,-45,-1.84723196648945,-1,0.357998800000132,0.0410602402648692,0.657329459735138,0.0142156929205026,1
39,2,215,760,76,-45,-1.84723196648945,-1,0.353221200000007,0.0509743999996317,0.763920800000051,0.0142156929205026,1
19,2,216,360,36,-45,-1.84723196648945,1,0.442953899999793,0.0451981000001069,0.359715399999914,0.0142156929205026,0
22,2,217,420,42,-45,-1.84723196648945,-1,0.548298799999884,0.049421700000039,0.42617220000011,0.0142156929205026,1
36,2,218,700,70,45,-1.84723196648945,1,0.445631899999626,0.0510706000000027,0.703522299999804,0.0142156929205026,1
17,2,219,320,32,-45,-1.84723196648945,-1,0.418970900000204,0.0452436999999009,0.319704399999864,0.0142156929205026,1
25,2,220,480,48,-45,-1.84723196648945,1,0.442146100000173,0.0501037999997607,0.483752199999799,0.0142156929205026,0
17,2,221,320,32,45,-1.84723196648945,1,0.420220099999824,0.0449265038992053,0.318521996100571,0.0142156929205026,1
37,2,222,720,72,-45,-1.84723196648945,-1,0.411277600000176,0.0500138000002153,0.723080599999776,0.0142156929205026,1
42,2,223,820,82,45,-1.84723196648945,1,0.48049039999978,0.0457720999997946,0.817973900000197,0.0142156929205026,1
27,2,224,520,52,45,-1.84723196648945,1,0.385514599999624,0.0412892103972808,0.517275789602536,0.0142156929205026,1
11,2,225,200,20,45,-1.84723196648945,1,0.39787750000005,0.0448084025993012,0.197474897400753,0.0142156929205026,1
8,2,226,140,14,-45,-1.84723196648945,1,0.412568899999769,0.0506508000003123,0.144359699999768,0.0142156929205026,0
51,2,227,1000,100,-45,-1.84723196648945,-1,0.623070200000257,0.042555605198686,0.997880094801531,0.0142156929205026,1
28,2,228,540,54,45,-1.84723196648945,-1,0.335034499999892,0.0510313000004317,0.541803499999787,0.0142156929205026,0
41,2,229,800,80,-45,-1.84723196648945,-1,0.409125300000142,0.0418021000000408,0.797287599999891,0.0142156929205026,1
7,2,230,120,12,-45,-1.84723196648945,1,0.576885299999958,0.0417693688327745,0.117014631166967,0.0142156929205026,0
33,2,231,640,64,45,-1.84723196648945,1,0.405262199999925,0.0452679675331638,0.637299332466682,0.0142156929205026,1
51,2,232,1000,100,45,-1.84723196648945,1,0.417400599999837,0.0410337727316801,0.99751762726828,0.0142156929205026,1
2,2,233,20,2,-45,-1.84723196648945,1,0.478180600000087,0.0398522999998931,0.0416651000000456,0.0142156929205026,0
26,2,234,500,50,45,-1.84723196648945,1,0.408099799999945,0.0506828000002315,0.501395299999785,0.0142156929205026,1
19,2,235,360,36,45,-1.84723196648945,1,0.401073800000177,0.041964999999891,0.356919199999993,0.0142156929205026,1
14,2,236,260,26,-45,-1.84723196648945,-1,0.427808700000242,0.048124700000244,0.259727399999974,0.0142156929205026,1
2,2,237,20,2,45,-1.84723196648945,1,0.40866909999977,0.0400319999998828,0.0308341999998447,0.0142156929205026,1
49,2,238,960,96,45,-1.84723196648945,1,0.504860000000008,0.0413939000000028,0.957394000000022,0.0142156929205026,1
3,2,239,40,4,-45,-1.84723196648945,-1,0.506588600000214,0.0467824000002111,0.0388601999998173,0.0142156929205026,1
5,2,240,80,8,45,-1.84723196648945,1,0.433582000000115,0.0477628000003278,0.0789408999999068,0.0142156929205026,1
21,2,241,400,40,-45,-1.84723196648945,1,0.425443100000393,0.0413353428639311,0.397169057136125,0.0142156929205026,0
20,2,242,380,38,-45,-1.84723196648945,-1,0.441937200000211,0.0445465376651555,0.377141962334463,0.0142156929205026,1
33,2,243,640,64,-45,-1.84723196648945,-1,0.46652499999982,0.0449163999996927,0.640157499999987,0.0142156929205026,1
42,2,244,820,82,-45,-1.84723196648945,1,0.700925600000119,0.0474120999997467,0.819647400000122,0.0142156929205026,0
44,2,245,860,86,45,-1.84723196648945,1,0.396359100000154,0.0420080999997481,0.857146100000136,0.0142156929205026,1
47,2,246,920,92,45,-1.84723196648945,1,0.408608599999752,0.0399198000000069,0.927079399999911,0.0142156929205026,1
23,2,247,440,44,-45,-1.84723196648945,1,0.386022400000002,0.0408619675331465,0.436838632467243,0.0142156929205026,0
25,2,248,480,48,-45,-1.84723196648945,-1,0.456222600000274,0.0420757389656501,0.477249461034262,0.0142156929205026,1
15,2,249,280,28,-45,-1.84723196648945,1,0.706072899999981,0.0421666999995978,0.27585500000032,0.0142156929205026,0
18,2,250,340,34,-45,-1.84723196648945,-1,0.483237599999939,0.0436200000003737,0.336805999999797,0.0142156929205026,1
36,2,251,700,70,45,-1.84723196648945,1,0.506745499999852,0.0441241077978702,0.697516892201747,0.0142156929205026,1
11,2,252,200,20,-45,-1.84723196648945,-1,0.448614899999939,0.042234140265009,0.197609559735156,0.0142156929205026,1
4,2,253,60,6,45,-1.84723196648945,-1,0.51093230000015,0.0407860000000255,0.056221700000151,0.0142156929205026,0
8,2,254,140,14,-45,-1.84723196648945,-1,0.540581799999927,0.0427017025995156,0.136824397400233,0.0142156929205026,1
49,2,255,960,96,-45,-1.84723196648945,-1,0.47437170000012,0.0512837999999647,0.962590899999668,0.0142156929205026,1
15,2,256,280,28,45,-1.84723196648945,1,0.496715499999937,0.041720975330918,0.2772335246691,0.0142156929205026,1
32,2,257,620,62,-45,-1.84723196648945,-1,0.412355899999966,0.0410489999999299,0.618164800000159,0.0142156929205026,1
7,2,258,120,12,-45,-1.84723196648945,-1,0.641592699999819,0.0498987999999372,0.124150999999983,0.0142156929205026,1
30,2,259,580,58,45,-1.84723196648945,-1,0.43239420000009,0.0451312350664921,0.578839064933618,0.0142156929205026,0
46,2,260,900,90,45,-1.84723196648945,1,0.708179499999915,0.0501307999998062,0.905713500000275,0.0142156929205026,1
42,2,261,820,82,45,-1.84723196648945,-1,0.444722600000205,0.0477982000002157,0.81944089999979,0.0142156929205026,0
31,2,262,600,60,45,-1.84723196648945,1,0.411627899999985,0.045162602599703,0.599554197400266,0.0142156929205026,1
48,2,263,940,94,-45,-1.84723196648945,-1,0.440592000000379,0.0442464389652741,0.938674561034532,0.0142156929205026,1
1,2,264,0,0,45,-1.84723196648945,1,0.501397800000177,0.0400392999999895,0.0186201999999867,0.0142156929205026,1
6,2,265,100,10,45,-1.84723196648945,-1,0.566908999999669,0.0499287000002369,0.103262799999811,0.0142156929205026,0
45,2,266,880,88,-45,-1.84723196648945,-1,0.579415700000027,0.045522746763254,0.878695853236877,0.0142156929205026,1
12,2,267,220,22,45,-1.84723196648945,1,0.585096700000122,0.0452664064982855,0.217680593501882,0.0142156929205026,1
16,2,268,300,30,45,-1.84723196648945,-1,0.47070020000001,0.0455505376658039,0.299321362334467,0.0142156929205026,0
43,2,269,840,84,45,-1.84723196648945,1,0.433049300000221,0.0512484000000768,0.843822599999839,0.0142156929205026,1
18,2,270,340,34,-45,-1.84723196648945,-1,0.406770399999914,0.0508979000001091,0.34265890000006,0.0142156929205026,1
43,2,271,840,84,45,-1.84723196648945,1,0.419676900000013,0.0499849000002541,0.842262699999992,0.0142156929205026,1
11,2,272,200,20,45,-1.84723196648945,1,0.462842099999762,0.0436792402651918,0.197048459735015,0.0142156929205026,1
7,2,273,120,12,45,-1.84723196648945,1,0.385099500000251,0.0429686000002221,0.116342599999825,0.0142156929205026,1
32,2,274,620,62,45,-1.84723196648945,1,0.414055000000189,0.0409381999998004,0.616692300000068,0.0142156929205026,1
37,2,275,720,72,45,-1.84723196648945,1,0.48653080000031,0.0510021000000052,0.726600800000142,0.0142156929205026,1
21,2,276,400,40,-45,-1.84723196648945,-1,0.502993300000071,0.0440749740314459,0.396936825968623,0.0142156929205026,1
25,2,277,480,48,-45,-1.84723196648945,-1,0.392776099999992,0.0493866000001617,0.485906899999918,0.0142156929205026,1
10,2,278,180,18,45,-1.84723196648945,1,0.452692200000001,0.049302599999919,0.18564970000034,0.0142156929205026,1
1,2,279,0,0,-45,-1.84723196648945,-1,0.462194600000203,0.0456662999999935,0.00442350000002989,0.0142156929205026,1
24,2,280,460,46,-45,-1.84723196648945,1,0.427911299999778,0.050893300000098,0.465057699999761,0.0142156929205026,0
35,2,281,680,68,45,-1.84723196648945,1,0.523217500000101,0.0454516999998305,0.679652499999975,0.0142156929205026,1
5,2,282,80,8,-45,-1.84723196648945,1,0.627689999999802,0.0453805000001921,0.0792874999997366,0.0142156929205026,0
38,2,283,740,74,45,-1.84723196648945,1,0.407173799999782,0.0402325999998538,0.736295400000017,0.0142156929205026,1
26,2,284,500,50,-45,-1.84723196648945,-1,0.500849000000017,0.0415041428641416,0.497199357135742,0.0142156929205026,1
24,2,285,460,46,45,-1.84723196648945,1,0.428237600000102,0.05058229999986,0.464832100000422,0.0142156929205026,1
39,2,286,760,76,45,-1.84723196648945,1,0.41834340000014,0.0407442000000628,0.757071200000155,0.0142156929205026,1
48,2,287,940,94,-45,-1.84723196648945,-1,0.413714499999969,0.0499168000001191,0.944042000000081,0.0142156929205026,1
6,2,288,100,10,45,-1.84723196648945,1,0.423032199999852,0.0400100000001657,0.112928099999863,0.0142156929205026,1
30,2,289,580,58,45,-1.84723196648945,1,0.450472099999843,0.0442721103972872,0.577519889603082,0.0142156929205026,1
33,2,290,640,64,45,-1.84723196648945,1,0.393525800000134,0.049727300000086,0.644794499999989,0.0142156929205026,1
30,2,291,580,58,45,-1.84723196648945,-1,0.418807199999719,0.0440330999999787,0.577057500000137,0.0142156929205026,0
13,2,292,240,24,-45,-1.84723196648945,-1,0.476204300000063,0.0495747999998457,0.24248230000012,0.0142156929205026,1
16,2,293,300,30,-45,-1.84723196648945,-1,0.331437700000151,0.0430165155962641,0.297210584403729,0.0142156929205026,1
38,2,294,740,74,45,-1.84723196648945,1,0.450296299999991,0.0440761766308242,0.737361823369156,0.0142156929205026,1
3,2,295,40,4,-45,-1.84723196648945,1,1.0376839999999,0.0453492000001461,0.0370214999998097,0.0142156929205026,0
13,2,296,240,24,45,-1.84723196648945,-1,0.44872179999993,0.0472431000002871,0.239777199999935,0.0142156929205026,0
20,2,297,380,38,45,-1.84723196648945,1,0.444492000000082,0.0422953688325833,0.377025431167112,0.0142156929205026,1
16,2,298,300,30,-45,-1.84723196648945,-1,0.356839000000036,0.0479622000002564,0.299578099999962,0.0142156929205026,1
2,2,299,20,2,-45,-1.84723196648945,1,0.512078900000233,0.0449472000000242,0.0186684999998761,0.0142156929205026,0
8,2,300,140,14,45,-1.84723196648945,1,0.463118399999985,0.0506098000000748,0.142488699999831,0.0142156929205026,1
29,2,301,560,56,45,-1.84723196648945,1,0.405999600000087,0.0440466999998534,0.557274400000097,0.0142156929205026,1
4,2,302,60,6,-45,-1.84723196648945,-1,0.442803599999934,0.044656699999905,0.0563064000002669,0.0142156929205026,1
34,2,303,660,66,45,-1.84723196648945,1,0.532369300000028,0.0506530000002385,0.665146399999685,0.0142156929205026,1
38,2,304,740,74,-45,-1.84723196648945,1,0.466971900000317,0.043467438965763,0.737267061034345,0.0142156929205026,0
31,2,305,600,60,-45,-1.84723196648945,1,0.412436099999923,0.0444525675334262,0.599181132466583,0.0142156929205026,0
28,2,306,540,54,-45,-1.84723196648945,-1,0.414182199999686,0.0499418999997943,0.543715300000258,0.0142156929205026,1
34,3,307,660,66,-45,-1.84723196648945,-1,0.421476499999699,0.0494574999997894,0.665311000000202,0.0142156929205026,1
19,3,308,360,36,45,-1.84723196648945,1,0.401605800000198,0.0503795999998147,0.364053300000251,0.0142156929205026,1
44,3,309,860,86,45,-1.84723196648945,1,0.434123500000169,0.0488918999999441,0.860662900000079,0.0142156929205026,1
23,3,310,440,44,-45,-1.84723196648945,-1,0.427386599999863,0.0452697999999145,0.439214200000151,0.0142156929205026,1
14,3,311,260,26,45,-1.84723196648945,1,0.458649899999727,0.0489668999998685,0.260450799999944,0.0142156929205026,1
20,3,312,380,38,-45,-1.84723196648945,-1,0.398091800000202,0.0407142675330761,0.377022832466992,0.0142156929205026,1
47,3,313,920,92,-45,-1.84723196648945,-1,0.385541500000272,0.0411457999998674,0.917194999999992,0.0142156929205026,1
33,3,314,640,64,45,-1.84723196648945,-1,0.424591700000292,0.0424337428639774,0.637259957135939,0.0142156929205026,0
10,3,315,180,18,-45,-1.84723196648945,-1,0.421995700000025,0.041079367533257,0.176657032466665,0.0142156929205026,1
5,3,316,80,8,45,-1.84723196648945,1,0.56714090000014,0.0510438999999678,0.0860939000003782,0.0142156929205026,1
15,3,317,280,28,45,-1.84723196648945,-1,0.397867799999858,0.0452101740315811,0.277261225968687,0.0142156929205026,0
35,3,318,680,68,-45,-1.84723196648945,1,0.394592000000102,0.0452441000002182,0.680019399999765,0.0142156929205026,0
18,3,319,340,34,45,-1.84723196648945,-1,0.374116400000275,0.0408140038994134,0.336897596100698,0.0142156929205026,0
29,3,320,560,56,-45,-1.84723196648945,1,0.427653599999758,0.0504439000001184,0.562062699999842,0.0142156929205026,0
47,3,321,920,92,45,-1.84723196648945,1,0.402045199999975,0.0496457999997801,0.924529600000369,0.0142156929205026,1
6,3,322,100,10,-45,-1.84723196648945,1,0.415147000000161,0.0457037999999557,0.0992701999998644,0.0142156929205026,0
39,3,323,760,76,-45,-1.84723196648945,-1,0.545712899999671,0.0411223000000973,0.756796799999847,0.0142156929205026,1
29,3,324,560,56,-45,-1.84723196648945,-1,0.393571399999928,0.0406885675329249,0.55781283246688,0.0142156929205026,1
33,3,325,640,64,-45,-1.84723196648945,-1,0.332688399999824,0.04950719999988,0.641670800000156,0.0142156929205026,1
9,3,326,160,16,45,-1.84723196648945,-1,0.440029100000174,0.0429586000000199,0.156595599999946,0.0142156929205026,0
17,3,327,320,32,45,-1.84723196648945,-1,0.471616799999993,0.0499807000001056,0.32629309999993,0.0142156929205026,0
4,3,328,60,6,45,-1.84723196648945,1,0.468180099999699,0.0501874999999927,0.073964100000012,0.0142156929205026,1
5,3,329,80,8,45,-1.84723196648945,1,0.439144900000429,0.0436853000001065,0.0764799999997194,0.0142156929205026,1
2,3,330,20,2,45,-1.84723196648945,1,0.434730599999966,0.0433653000000049,0.0180093999997553,0.0142156929205026,1
26,3,331,500,50,45,-1.84723196648945,1,0.357039800000166,0.0418039103969932,0.497168689602859,0.0142156929205026,1
40,3,332,780,78,-45,-1.84723196648945,1,0.685757400000057,0.0497110000001157,0.784241000000293,0.0142156929205026,0
45,3,333,880,88,-45,-1.84723196648945,1,0.537120400000276,0.041417837665449,0.877188862334606,0.0142156929205026,0
21,3,334,400,40,45,-1.84723196648945,1,0.441701699999612,0.0413865714322128,0.396988428567511,0.0142156929205026,1
33,3,335,640,64,45,-1.84723196648945,1,0.487920099999883,0.0507238999998663,0.645479199999954,0.0142156929205026,1
16,3,336,300,30,45,-1.84723196648945,1,0.471190900000238,0.0455860064985245,0.299193493501662,0.0142156929205026,1
11,3,337,200,20,45,-1.84723196648945,1,0.465960500000165,0.0416341000000102,0.19657559999996,0.0142156929205026,1
50,3,338,980,98,-45,-1.84723196648945,-1,0.41769609999983,0.0444706376651993,0.977504562334616,0.0142156929205026,1
22,3,339,420,42,45,-1.84723196648945,-1,0.549120199999834,0.0414429051988918,0.417093794801531,0.0142156929205026,0
1,3,340,0,0,45,-1.84723196648945,1,0.561876599999778,0.051013199999943,0.0109862999997858,0.0142156929205026,1
40,3,341,780,78,-45,-1.84723196648945,1,0.492934100000184,0.0495762999998988,0.785318199999892,0.0142156929205026,0
13,3,342,240,24,-45,-1.84723196648945,1,0.474073800000042,0.0498172000002342,0.24385089999987,0.0142156929205026,0
13,3,343,240,24,45,-1.84723196648945,1,0.456968800000141,0.0417953999999554,0.237003100000038,0.0142156929205026,1
29,3,344,560,56,-45,-1.84723196648945,-1,0.360376999999971,0.0420790701323313,0.557225629867389,0.0142156929205026,1
2,3,345,20,2,45,-1.84723196648945,1,0.441840600000432,0.0491017999997894,0.0207700000000841,0.0142156929205026,1
17,3,346,320,32,-45,-1.84723196648945,-1,0.472830600000179,0.0416065714321121,0.317211028567726,0.0142156929205026,1
24,3,347,460,46,-45,-1.84723196648945,-1,0.831305100000009,0.0502074000000903,0.462409899999784,0.0142156929205026,1
1,3,348,0,0,-45,-1.84723196648945,1,0.461890400000357,0.0400116000000708,0.0256045999999515,0.0142156929205026,0
1,3,349,0,0,45,-1.84723196648945,-1,0.44690139999966,0.0446658000000753,0.00440009999965696,0.0142156929205026,0
30,3,350,580,58,45,-1.84723196648945,1,0.437363999999889,0.0412171103971559,0.577483789602866,0.0142156929205026,1
25,3,351,480,48,45,-1.84723196648945,-1,0.71703350000007,0.0488037999998596,0.482151200000317,0.0142156929205026,0
10,3,352,180,18,-45,-1.84723196648945,1,0.452178400000321,0.0511754000003748,0.184687699999813,0.0142156929205026,0
24,3,353,460,46,-45,-1.84723196648945,-1,0.460943800000223,0.0502997999997206,0.464426699999876,0.0142156929205026,1
42,3,354,820,82,45,-1.84723196648945,1,0.458333299999595,0.0494700999997804,0.819943599999988,0.0142156929205026,1
7,3,355,120,12,-45,-1.84723196648945,-1,0.403126600000178,0.0512094000000616,0.122012199999972,0.0142156929205026,1
48,3,356,940,94,-45,-1.84723196648945,-1,0.551205000000209,0.0447503389655139,0.939694761034389,0.0142156929205026,1
41,3,357,800,80,-45,-1.84723196648945,-1,0.390694100000019,0.044090899999901,0.797289600000113,0.0142156929205026,1
17,3,358,320,32,45,-1.84723196648945,1,0.442890899999838,0.049491499999931,0.323482400000103,0.0142156929205026,1
6,3,359,100,10,45,-1.84723196648945,-1,0.592705000000024,0.0450636701320946,0.0981687298681209,0.0142156929205026,0
25,3,360,480,48,45,-1.84723196648945,1,0.635543099999722,0.0501970999998775,0.482423699999799,0.0142156929205026,1
10,3,361,180,18,45,-1.84723196648945,1,0.436412199999722,0.0425765999998475,0.177225200000066,0.0142156929205026,1
31,3,362,600,60,45,-1.84723196648945,1,0.470440699999926,0.0491378000001532,0.600399100000232,0.0142156929205026,1
49,3,363,960,96,-45,-1.84723196648945,-1,0.489884399999937,0.0408907701321368,0.957157629867652,0.0142156929205026,1
27,3,364,520,52,-45,-1.84723196648945,-1,0.383951600000273,0.0511380999996618,0.524845500000083,0.0142156929205026,1
41,3,365,800,80,45,-1.84723196648945,1,0.551010399999996,0.0434919038993939,0.797282696100865,0.0142156929205026,1
12,3,366,220,22,45,-1.84723196648945,1,0.48760829999992,0.0464930675334472,0.217949132466856,0.0142156929205026,1
51,3,367,1000,100,-45,-1.84723196648945,-1,1.39119530000016,0.0508576000001995,1.00590469999997,0.0142156929205026,1
34,3,368,660,66,45,-1.84723196648945,1,0.516052099999797,0.0501070000000254,0.66593499999999,0.0142156929205026,1
11,3,369,200,20,45,-1.84723196648945,1,0.634933100000126,0.0452832000000853,0.1995237000001,0.0142156929205026,1
3,3,370,40,4,-45,-1.84723196648945,1,0.515442299999904,0.0511369000000741,0.0413849999999911,0.0142156929205026,0
23,3,371,440,44,-45,-1.84723196648945,1,0.44697989999986,0.0436678999999458,0.436897800000224,0.0142156929205026,0
4,3,372,60,6,45,-1.84723196648945,1,0.548459300000104,0.0400071999997635,0.067294899999979,0.0142156929205026,1
32,3,373,620,62,45,-1.84723196648945,1,0.490733000000091,0.0512914000000819,0.626046699999733,0.0142156929205026,1
44,3,374,860,86,45,-1.84723196648945,1,0.64667529999997,0.0452642000000196,0.860029399999803,0.0142156929205026,1
49,3,375,960,96,45,-1.84723196648945,1,0.600937700000031,0.0493898999998237,0.965569599999981,0.0142156929205026,1
31,3,376,600,60,45,-1.84723196648945,1,0.465224300000045,0.0497497999999723,0.604706699999952,0.0142156929205026,1
23,3,377,440,44,45,-1.84723196648945,1,0.465418199999931,0.0495382999997673,0.444909299999836,0.0142156929205026,1
38,3,378,740,74,45,-1.84723196648945,1,0.369470999999976,0.0446884090974891,0.737722290902184,0.0142156929205026,1
12,3,379,220,22,45,-1.84723196648945,1,0.523026599999866,0.0439406714322104,0.217168028567812,0.0142156929205026,1
4,3,380,60,6,45,-1.84723196648945,1,0.468084799999815,0.0483410636338704,0.0594916999998532,0.0142156929205026,1
20,3,381,380,38,45,-1.84723196648945,1,0.771261299999878,0.0484773999996833,0.379972600000201,0.0142156929205026,1
13,3,382,240,24,-45,-1.84723196648945,1,0.610663399999794,0.0455433000001904,0.23976249999987,0.0142156929205026,0
8,3,383,140,14,45,-1.84723196648945,1,0.605232800000067,0.0418684999999641,0.136839600000258,0.0142156929205026,1
32,3,384,620,62,45,-1.84723196648945,1,0.471762699999999,0.0444184999996651,0.61945790000027,0.0142156929205026,1
49,3,385,960,96,45,-1.84723196648945,1,0.610286999999971,0.0454686337661769,0.960188466233831,0.0142156929205026,1
3,3,386,40,4,45,-1.84723196648945,-1,0.52932490000012,0.0426284000000123,0.0356911000003493,0.0142156929205026,0
8,3,387,140,14,-45,-1.84723196648945,-1,0.632064599999921,0.0449034999996911,0.138989800000218,0.0142156929205026,1
35,3,388,680,68,45,-1.84723196648945,1,0.630938099999639,0.0484435753310208,0.680499324669199,0.0142156929205026,1
7,3,389,120,12,45,-1.84723196648945,1,0.542081999999937,0.0437987402651743,0.117762459734877,0.0142156929205026,1
19,3,390,360,36,45,-1.84723196648945,1,0.481810199999927,0.0423507999998947,0.355888699999923,0.0142156929205026,1
38,3,391,740,74,45,-1.84723196648945,-1,0.485991999999897,0.0512053999996169,0.742262100000062,0.0142156929205026,0
38,3,392,740,74,-45,-1.84723196648945,-1,0.823088199999802,0.0495940000000701,0.742851499999688,0.0142156929205026,1
16,3,393,300,30,-45,-1.84723196648945,1,0.502134899999874,0.046990199999982,0.298511200000121,0.0142156929205026,0
25,3,394,480,48,-45,-1.84723196648945,-1,0.504941900000176,0.0419191467635756,0.477155853236582,0.0142156929205026,1
9,3,395,160,16,45,-1.84723196648945,1,0.566955100000087,0.0427501077979286,0.157956492202175,0.0142156929205026,1
45,3,396,880,88,45,-1.84723196648945,1,0.53824029999987,0.0509565000002112,0.882854499999667,0.0142156929205026,1
39,3,397,760,76,-45,-1.84723196648945,-1,0.658815399999639,0.0494151000002603,0.763547000000017,0.0142156929205026,1
51,3,398,1000,100,-45,-1.84723196648945,-1,0.492548199999874,0.0452000142963698,0.998422185703475,0.0142156929205026,1
18,3,399,340,34,-45,-1.84723196648945,-1,0.5661941999997,0.0413776999998845,0.336232699999982,0.0142156929205026,1
19,3,400,360,36,-45,-1.84723196648945,-1,0.522688900000048,0.0462370999998711,0.359032200000001,0.0142156929205026,1
37,3,401,720,72,-45,-1.84723196648945,1,0.536077599999771,0.0498941999999261,0.725897100000111,0.0142156929205026,0
14,3,402,260,26,-45,-1.84723196648945,-1,0.723833099999865,0.0428152051990764,0.257076494800913,0.0142156929205026,1
36,3,403,700,70,45,-1.84723196648945,1,0.495344400000249,0.0497568000000683,0.70283339999969,0.0142156929205026,1
48,3,404,940,94,45,-1.84723196648945,1,0.690383600000132,0.0487077714319639,0.940847028567987,0.0142156929205026,1
28,3,405,540,54,45,-1.84723196648945,1,0.66930769999999,0.0417755727321492,0.537093427267791,0.0142156929205026,1
37,3,406,720,72,45,-1.84723196648945,1,0.500667399999656,0.044333001299492,0.719164998700307,0.0142156929205026,1
26,3,407,500,50,45,-1.84723196648945,-1,0.509820799999943,0.0469465337664587,0.498809466233979,0.0142156929205026,0
27,3,408,520,52,-45,-1.84723196648945,-1,0.461170600000514,0.0442520415645049,0.518455658435414,0.0142156929205026,1
42,3,409,820,82,-45,-1.84723196648945,-1,0.417620100000022,0.0451496701325595,0.817393629867183,0.0142156929205026,1
3,3,410,40,4,-45,-1.84723196648945,-1,0.738243900000271,0.0418431999996756,0.0356577000002289,0.0142156929205026,1
43,3,411,840,84,45,-1.84723196648945,-1,0.401136800000131,0.0506600999997318,0.844350600000325,0.0142156929205026,0
28,3,412,540,54,45,-1.84723196648945,1,0.47811559999991,0.0408747389656128,0.537356861033913,0.0142156929205026,1
40,3,413,780,78,45,-1.84723196648945,1,0.762262999999621,0.0434701753310947,0.777981524668576,0.0142156929205026,1
36,3,414,700,70,-45,-1.84723196648945,-1,0.428557999999612,0.0419273688321482,0.697103131167751,0.0142156929205026,1
32,3,415,620,62,-45,-1.84723196648945,-1,0.459875799999281,0.0428152701333602,0.617272029867308,0.0142156929205026,1
26,3,416,500,50,-45,-1.84723196648945,-1,0.384255699999812,0.0461596350660329,0.497530764933799,0.0142156929205026,1
2,3,417,20,2,-45,-1.84723196648945,-1,0.616701699999794,0.0509603999998944,0.019979599999715,0.0142156929205026,1
21,3,418,400,40,-45,-1.84723196648945,-1,0.396729600000072,0.0494447999999466,0.401488100000279,0.0142156929205026,1
43,3,419,840,84,-45,-1.84723196648945,-1,0.590689499999826,0.0513071000004857,0.846055199999682,0.0142156929205026,1
50,3,420,980,98,45,-1.84723196648945,-1,0.434209299999566,0.0443293727312266,0.977441127268321,0.0142156929205026,0
46,3,421,900,90,-45,-1.84723196648945,-1,0.311436199999662,0.0504687000002377,0.902056599999923,0.0142156929205026,1
43,3,422,840,84,45,-1.84723196648945,-1,0.372607199999948,0.0499464000004082,0.841633699999875,0.0142156929205026,0
36,3,423,700,70,45,-1.84723196648945,-1,0.458022099999653,0.0444591350669725,0.697469664933124,0.0142156929205026,0
21,3,424,400,40,-45,-1.84723196648945,-1,0.416460099999313,0.0477978999997504,0.399701500000447,0.0142156929205026,1
15,3,425,280,28,45,-1.84723196648945,-1,0.38543750000008,0.0419653999997536,0.276664100000744,0.0142156929205026,0
45,3,426,880,88,45,-1.84723196648945,-1,0.499106299999767,0.0449458701323238,0.879489029866818,0.0142156929205026,0
8,3,427,140,14,45,-1.84723196648945,1,1.27694969999993,0.0424357000001692,0.136521000000357,0.0142156929205026,1
39,3,428,760,76,-45,-1.84723196648945,1,0.432665900000757,0.0418898688330955,0.757005631166976,0.0142156929205026,0
34,3,429,660,66,-45,-1.84723196648945,-1,0.549689999999828,0.0407718441638281,0.65720185583632,0.0142156929205026,1
6,3,430,100,10,-45,-1.84723196648945,-1,0.390612000000147,0.0409578363651235,0.0965718636352904,0.0142156929205026,1
22,3,431,420,42,-45,-1.84723196648945,-1,0.43011210000077,0.0466235000003508,0.418580699999438,0.0142156929205026,1
12,3,432,220,22,-45,-1.84723196648945,-1,0.395232899999428,0.0506808000000092,0.226300399999673,0.0142156929205026,1
31,3,433,600,60,-45,-1.84723196648945,1,0.495095899999797,0.0437082714315693,0.597237428568405,0.0142156929205026,0
9,3,434,160,16,-45,-1.84723196648945,-1,0.568915599999855,0.0501831000001403,0.165210299999671,0.0142156929205026,1
51,3,435,1000,100,-45,-1.84723196648945,-1,0.426738500000283,0.046703138965313,0.998789361035051,0.0142156929205026,1
46,3,436,900,90,-45,-1.84723196648945,1,0.567308200000298,0.0504909000001135,0.90188390000003,0.0142156929205026,0
46,3,437,900,90,45,-1.84723196648945,1,0.56477360000008,0.051228400000582,0.90427389999968,0.0142156929205026,1
41,3,438,800,80,45,-1.84723196648945,1,0.422045999999682,0.0444127000000663,0.797489799999312,0.0142156929205026,1
18,3,439,340,34,45,-1.84723196648945,1,0.446068899999773,0.0470720675330085,0.338977332467039,0.0142156929205026,1
5,3,440,80,8,45,-1.84723196648945,1,0.440492400000039,0.0432786012997894,0.0764333986999191,0.0142156929205026,1
30,3,441,580,58,-45,-1.84723196648945,-1,0.512754600000335,0.0453035000000455,0.577568299999257,0.0142156929205026,1
28,3,442,540,54,-45,-1.84723196648945,1,0.47540939999999,0.0430763000003935,0.537109099999725,0.0142156929205026,0
27,3,443,520,52,45,-1.84723196648945,1,0.529311100000086,0.0414170064977952,0.517096393501561,0.0142156929205026,1
11,3,444,200,20,45,-1.84723196648945,1,0.451798300000519,0.0497611000000688,0.202234299999873,0.0142156929205026,1
44,3,445,860,86,-45,-1.84723196648945,-1,0.442955399999846,0.0511833000000479,0.866133900000023,0.0142156929205026,1
16,3,446,300,30,45,-1.84723196648945,1,0.43006509999941,0.0411406350667676,0.296823864933685,0.0142156929205026,1
47,3,447,920,92,45,-1.84723196648945,1,0.559050399999251,0.0436126051990868,0.917360394801108,0.0142156929205026,1
14,3,448,260,26,45,-1.84723196648945,-1,0.466881299999841,0.0511015000001862,0.2657906000004,0.0142156929205026,0
15,3,449,280,28,-45,-1.84723196648945,-1,0.434750299999905,0.0493461000005482,0.284060599999975,0.0142156929205026,1
50,3,450,980,98,-45,-1.84723196648945,-1,0.467123800000081,0.0433212038988131,0.977375396100797,0.0142156929205026,1
42,3,451,820,82,-45,-1.84723196648945,-1,0.706290099999933,0.0511457000002338,0.82622259999971,0.0142156929205026,1
30,3,452,580,58,-45,-1.84723196648945,1,0.573986599999444,0.0470278000002509,0.579035400000066,0.0142156929205026,0
35,3,453,680,68,-45,-1.84723196648945,-1,0.425981599999432,0.0470162350666214,0.679036764933699,0.0142156929205026,1
37,3,454,720,72,-45,-1.84723196648945,-1,0.385886300000493,0.0471676779307018,0.71891032206895,0.0142156929205026,1
48,3,455,940,94,45,-1.84723196648945,1,0.492439900000136,0.0419295000001512,0.937071500000457,0.0142156929205026,1
20,3,456,380,38,45,-1.84723196648945,1,0.571059800000512,0.0426681077988178,0.378031092201127,0.0142156929205026,1
24,3,457,460,46,45,-1.84723196648945,1,0.586864900000364,0.0438970454633818,0.457224254536413,0.0142156929205026,1
7,3,458,120,12,45,-1.84723196648945,-1,0.486623099999633,0.0494316000003892,0.119968699999845,0.0142156929205026,0
22,3,459,420,42,45,-1.84723196648945,1,0.446284300000116,0.0456035999995947,0.419995000000199,0.0142156929205026,1
15,4,460,280,28,45,-1.84723196648945,1,0.490705700000035,0.0452964999994947,0.27984749999996,0.0142156929205026,1
44,4,461,860,86,-45,-1.84723196648945,-1,0.443334999999934,0.0434272727325151,0.857411927268004,0.0142156929205026,1
46,4,462,900,90,45,-1.84723196648945,1,0.389664700000139,0.0493055999995704,0.90494630000012,0.0142156929205026,1
14,4,463,260,26,45,-1.84723196648945,1,0.500936699999329,0.0417496000000028,0.256774999999834,0.0142156929205026,1
16,4,464,300,30,45,-1.84723196648945,1,0.427143599999908,0.0436336415650658,0.296882258435289,0.0142156929205026,1
49,4,465,960,96,-45,-1.84723196648945,1,0.408861899999465,0.041935735066545,0.957057764933779,0.0142156929205026,0
33,4,466,640,64,-45,-1.84723196648945,1,0.462402100000872,0.0486371999995754,0.640631700000085,0.0142156929205026,0
30,4,467,580,58,-45,-1.84723196648945,1,0.451130499999636,0.0441600000003746,0.57677109999986,0.0142156929205026,0
14,4,468,260,26,45,-1.84723196648945,1,0.436444300000403,0.0418353714312616,0.257936328568576,0.0142156929205026,1
3,4,469,40,4,45,-1.84723196648945,1,0.434149400000024,0.0493335000001025,0.0444980000002033,0.0142156929205026,1
33,4,470,640,64,-45,-1.84723196648945,-1,0.470430800000031,0.0441871714310764,0.637225128568389,0.0142156929205026,1
30,4,471,580,58,-45,-1.84723196648945,1,0.436746299999868,0.0422486376655797,0.577205962335029,0.0142156929205026,0
37,4,472,720,72,-45,-1.84723196648945,1,0.376682300000539,0.0419388051996066,0.71731179480048,0.0142156929205026,0
28,4,473,540,54,45,-1.84723196648945,1,0.456021400000282,0.0455162402640781,0.53857485973549,0.0142156929205026,1
17,4,474,320,32,-45,-1.84723196648945,-1,0.48317600000064,0.0449228116976883,0.319887188302346,0.0142156929205026,1
15,4,475,280,28,-45,-1.84723196648945,-1,0.51259840000057,0.0514039999998204,0.283852800000204,0.0142156929205026,1
50,4,476,980,98,-45,-1.84723196648945,1,0.478687200000422,0.0454113999994661,0.980136199999833,0.0142156929205026,0
37,4,477,720,72,-45,-1.84723196648945,-1,0.46694430000025,0.0451789999997345,0.719900199999756,0.0142156929205026,1
26,4,478,500,50,-45,-1.84723196648945,-1,0.40296170000056,0.0438493428646325,0.497501157135048,0.0142156929205026,1
19,4,479,360,36,45,-1.84723196648945,-1,0.459338300000127,0.0451415999996243,0.359195800000634,0.0142156929205026,0
44,4,480,860,86,-45,-1.84723196648945,-1,0.460361800000101,0.0505192999999053,0.865302000000156,0.0142156929205026,1
18,4,481,340,34,45,-1.84723196648945,-1,0.421879399999852,0.0418938077982602,0.336867592201997,0.0142156929205026,0
49,4,482,960,96,-45,-1.84723196648945,-1,0.491025699999227,0.0502565999995568,0.962962000000516,0.0142156929205026,1
17,4,483,320,32,45,-1.84723196648945,-1,0.455907599999591,0.0494976999998471,0.326277299999674,0.0142156929205026,0
23,4,484,440,44,45,-1.84723196648945,1,0.592106999999487,0.0511962999999014,0.444849499999691,0.0142156929205026,1
24,4,485,460,46,-45,-1.84723196648945,-1,0.446635700000115,0.049517299999934,0.464054600000054,0.0142156929205026,1
25,4,486,480,48,-45,-1.84723196648945,-1,0.584523399999853,0.0512027999993734,0.4838878999999,0.0142156929205026,1
21,4,487,400,40,-45,-1.84723196648945,-1,0.498421999999664,0.0457665013000224,0.399908498699915,0.0142156929205026,1
6,4,488,100,10,45,-1.84723196648945,-1,0.677983799999311,0.0421235000003435,0.0961807000003319,0.0142156929205026,0
27,4,489,520,52,-45,-1.84723196648945,-1,0.512093400000595,0.0424760727319153,0.517111727268457,0.0142156929205026,1
5,4,490,80,8,45,-1.84723196648945,-1,0.471996599999329,0.0432473999999274,0.0767023999997036,0.0142156929205026,0
29,4,491,560,56,45,-1.84723196648945,1,0.536180699999932,0.0497024999995119,0.566017400000419,0.0142156929205026,1
18,4,492,340,34,-45,-1.84723196648945,-1,0.598745200000849,0.0406050999999934,0.336816099999851,0.0142156929205026,1
32,4,493,620,62,-45,-1.84723196648945,1,0.538345900000422,0.04460661039775,0.617297789602162,0.0142156929205026,0
21,4,494,400,40,45,-1.84723196648945,1,0.662272399999893,0.0446580688321774,0.397080131167968,0.0142156929205026,1
41,4,495,800,80,-45,-1.84723196648945,1,0.629972000000635,0.0446883714321302,0.797249828568056,0.0142156929205026,0
46,4,496,900,90,-45,-1.84723196648945,1,0.756690700000036,0.0496431000001394,0.905841400000099,0.0142156929205026,0
23,4,497,440,44,45,-1.84723196648945,1,0.430358800000249,0.0445894000004046,0.437248700000055,0.0142156929205026,1
18,4,498,340,34,45,-1.84723196648945,1,0.434423799999422,0.0429500376658325,0.338262462334569,0.0142156929205026,1
35,4,499,680,68,-45,-1.84723196648945,1,0.450298400000065,0.0406385701326144,0.677280229867392,0.0142156929205026,0
44,4,500,860,86,-45,-1.84723196648945,-1,0.544012700000167,0.0506985000001805,0.861400900000262,0.0142156929205026,1
48,4,501,940,94,-45,-1.84723196648945,-1,0.57190509999964,0.0512712999998257,0.944686800000454,0.0142156929205026,1
12,4,502,220,22,45,-1.84723196648945,1,0.732592699999259,0.0497134999995978,0.22551040000053,0.0142156929205026,1
42,4,503,820,82,-45,-1.84723196648945,-1,0.691765900000064,0.0497615000003861,0.826355500000318,0.0142156929205026,1
33,4,504,640,64,-45,-1.84723196648945,1,0.441484599999967,0.0498511999994662,0.644534700000804,0.0142156929205026,0
23,4,505,440,44,-45,-1.84723196648945,1,0.494037800000115,0.0510420000000522,0.446814500000073,0.0142156929205026,0
30,4,506,580,58,-45,-1.84723196648945,-1,0.479519800000162,0.0450412000000142,0.579775499999414,0.0142156929205026,1
48,4,507,940,94,-45,-1.84723196648945,1,0.49569960000008,0.0496496999994633,0.942016300000432,0.0142156929205026,0
11,4,508,200,20,45,-1.84723196648945,-1,0.513567100000728,0.0415921428648289,0.196887257135131,0.0142156929205026,0
12,4,509,220,22,45,-1.84723196648945,1,0.382675700000618,0.0404766000001473,0.216789500000232,0.0142156929205026,1
45,4,510,880,88,45,-1.84723196648945,-1,0.455008599999928,0.0439197999994576,0.877294099999745,0.0142156929205026,0
17,4,511,320,32,45,-1.84723196648945,1,0.469032700000753,0.0452685064983598,0.317907293501776,0.0142156929205026,1
46,4,512,900,90,-45,-1.84723196648945,-1,0.411449099999118,0.0481873999997333,0.900147400000606,0.0142156929205026,1
45,4,513,880,88,45,-1.84723196648945,1,0.570690800000193,0.0503114000002824,0.882899100000031,0.0142156929205026,1
22,4,514,420,42,-45,-1.84723196648945,1,0.453624799999488,0.0414827000004152,0.416653499999484,0.0142156929205026,0
22,4,515,420,42,-45,-1.84723196648945,-1,0.480028699999821,0.044997400000284,0.419021200000316,0.0142156929205026,1
25,4,516,480,48,45,-1.84723196648945,-1,0.617981200000031,0.0495262000004004,0.48439210000015,0.0142156929205026,0
31,4,517,600,60,-45,-1.84723196648945,-1,0.522445499999776,0.0455553402644,0.599872659735411,0.0142156929205026,1
2,4,518,20,2,45,-1.84723196648945,1,0.519439700000476,0.0405883999992511,0.0156501000001299,0.0142156929205026,1
11,4,519,200,20,-45,-1.84723196648945,-1,0.463468200000534,0.0434009999999034,0.196751399999812,0.0142156929205026,1
43,4,520,840,84,45,-1.84723196648945,1,0.465298699999948,0.050689580530161,0.843813019469962,0.0142156929205026,1
2,4,521,20,2,45,-1.84723196648945,1,0.536275100000239,0.0402334000000337,0.0155386999995244,0.0142156929205026,1
26,4,522,500,50,-45,-1.84723196648945,-1,0.428320900000472,0.0478114999996251,0.499858700000004,0.0142156929205026,1
36,4,523,700,70,45,-1.84723196648945,1,1.05341950000002,0.0501749000004565,0.704230199999984,0.0142156929205026,1
51,4,524,1000,100,45,-1.84723196648945,1,0.464848599999641,0.0413937402645388,0.997551259735701,0.0142156929205026,1
39,4,525,760,76,-45,-1.84723196648945,1,0.528762400000232,0.0416456753309831,0.75781872466905,0.0142156929205026,0
34,4,526,660,66,-45,-1.84723196648945,1,0.465583799999877,0.0444403999999849,0.657576600000539,0.0142156929205026,0
28,4,527,540,54,-45,-1.84723196648945,1,0.457187300000442,0.0451457402641608,0.537545559735918,0.0142156929205026,0
4,4,528,60,6,45,-1.84723196648945,1,0.566768000000593,0.0400599999993574,0.0814079000001584,0.0142156929205026,1
47,4,529,920,92,45,-1.84723196648945,1,0.496533900000031,0.0423759376653834,0.917217362334668,0.0142156929205026,1
16,4,530,300,30,45,-1.84723196648945,1,0.540256500000396,0.0511167000004207,0.304580199999691,0.0142156929205026,1
49,4,531,960,96,45,-1.84723196648945,1,0.588638399999581,0.0495602999999392,0.961543800000072,0.0142156929205026,1
41,4,532,800,80,-45,-1.84723196648945,-1,0.517242099999748,0.0442701701322221,0.798115429867721,0.0142156929205026,1
8,4,533,140,14,45,-1.84723196648945,1,0.557838200000333,0.0418847999999343,0.136377800000446,0.0142156929205026,1
21,4,534,400,40,-45,-1.84723196648945,-1,0.450499200000195,0.0456166740314075,0.39974532596807,0.0142156929205026,1
8,4,535,140,14,-45,-1.84723196648945,-1,0.398559299999761,0.0411196000004566,0.136493999999402,0.0142156929205026,1
38,4,536,740,74,-45,-1.84723196648945,-1,0.406010800000331,0.0409311000003072,0.737117300000136,0.0142156929205026,1
51,4,537,1000,100,45,-1.84723196648945,-1,0.622035800000049,0.0514206000007107,1.00621539999975,0.0142156929205026,0
9,4,538,160,16,-45,-1.84723196648945,1,0.63396929999999,0.0510955000008835,0.16310009999961,0.0142156929205026,0
10,4,539,180,18,-45,-1.84723196648945,-1,0.375297299999147,0.0494939000000159,0.182947899999817,0.0142156929205026,1
40,4,540,780,78,-45,-1.84723196648945,1,0.453698899999836,0.0477902428647212,0.77904605713502,0.0142156929205026,0
31,4,541,600,60,45,-1.84723196648945,1,0.495507899999211,0.0432404740322454,0.597157425967453,0.0142156929205026,1
35,4,542,680,68,-45,-1.84723196648945,-1,0.370915399999831,0.0505862999998499,0.682447899999715,0.0142156929205026,1
41,4,543,800,80,-45,-1.84723196648945,-1,0.443843699999888,0.0497741999997743,0.802391300000636,0.0142156929205026,1
39,4,544,760,76,45,-1.84723196648945,1,0.542402600000059,0.043909902598898,0.757522197401158,0.0142156929205026,1
1,4,545,0,0,45,-1.84723196648945,1,0.460585199999514,0.0513358000007429,0.0163690999997925,0.0142156929205026,1
40,4,546,780,78,45,-1.84723196648945,1,0.477074399999765,0.0411411999994016,0.77708419999999,0.0142156929205026,1
6,4,547,100,10,-45,-1.84723196648945,-1,0.461126700000023,0.0477977000000465,0.0989628999996057,0.0142156929205026,1
4,4,548,60,6,45,-1.84723196648945,-1,0.541703199999574,0.0501116999994338,0.0639802000005147,0.0142156929205026,0
24,4,549,460,46,45,-1.84723196648945,1,0.492316799999571,0.0428544389651506,0.456996461034578,0.0142156929205026,1
35,4,550,680,68,45,-1.84723196648945,1,0.43874489999962,0.0483337999994546,0.68049289999999,0.0142156929205026,1
36,4,551,700,70,45,-1.84723196648945,1,0.4182636000005,0.0487204999999449,0.70148380000046,0.0142156929205026,1
26,4,552,500,50,-45,-1.84723196648945,1,0.438830199999757,0.0501629999998841,0.502599299999929,0.0142156929205026,0
7,4,553,120,12,-45,-1.84723196648945,1,3.13096659999974,0.0449816999998802,0.119752099999459,0.0142156929205026,0
47,4,554,920,92,45,-1.84723196648945,1,0.464082399999825,0.0495615999998336,0.926487699999598,0.0142156929205026,1
38,4,555,740,74,-45,-1.84723196648945,-1,0.462547000000086,0.045324603899644,0.740001296100672,0.0142156929205026,1
8,4,556,140,14,45,-1.84723196648945,1,0.447631000000001,0.0496140000004743,0.142834299999777,0.0142156929205026,1
31,4,557,600,60,-45,-1.84723196648945,1,0.468486299999313,0.0490761999999449,0.60231769999973,0.0142156929205026,0
39,4,558,760,76,45,-1.84723196648945,1,0.447751499999868,0.0508701999997356,0.765017599999737,0.0142156929205026,1
10,4,559,180,18,45,-1.84723196648945,-1,0.575125800000023,0.0452863363652796,0.17982556363495,0.0142156929205026,0
4,4,560,60,6,-45,-1.84723196648945,-1,0.487660200000391,0.0465021999998498,0.0578525000000809,0.0142156929205026,1
7,4,561,120,12,-45,-1.84723196648945,-1,0.653188900000714,0.0450962000004438,0.117388099999516,0.0142156929205026,1
47,4,562,920,92,45,-1.84723196648945,1,0.474214900000334,0.0467315038995366,0.918767096100964,0.0142156929205026,1
37,4,563,720,72,45,-1.84723196648945,-1,0.534916099999464,0.0442090999995344,0.717063799999778,0.0142156929205026,0
28,4,564,540,54,-45,-1.84723196648945,-1,0.451682400000209,0.0486667000004672,0.53997309999977,0.0142156929205026,1
9,4,565,160,16,-45,-1.84723196648945,-1,0.436841100000493,0.0449469103978117,0.158223389602426,0.0142156929205026,1
9,4,566,160,16,45,-1.84723196648945,-1,0.547967299999982,0.0450940000000628,0.159031300000606,0.0142156929205026,0
6,4,567,100,10,45,-1.84723196648945,1,0.484783599999901,0.0424660350663544,0.0963780649335604,0.0142156929205026,1
16,4,568,300,30,-45,-1.84723196648945,-1,0.57036319999952,0.044520775330966,0.297082324668736,0.0142156929205026,1
40,4,569,780,78,45,-1.84723196648945,1,0.474967999999535,0.042071599999872,0.778938299999936,0.0142156929205026,1
42,4,570,820,82,45,-1.84723196648945,1,0.501992700000301,0.0511403999998947,0.823123300000589,0.0142156929205026,1
20,4,571,380,38,-45,-1.84723196648945,-1,0.584339,0.044159000000036,0.37967959999969,0.0142156929205026,1
19,4,572,360,36,-45,-1.84723196648945,1,0.464148000000023,0.0417316753309933,0.357153424669377,0.0142156929205026,0
29,4,573,560,56,45,-1.84723196648945,1,0.840380799999366,0.051242500000626,0.564350599999671,0.0142156929205026,1
1,4,574,0,0,-45,-1.84723196648945,-1,0.471823799999584,0.0399459999998726,0.0161575000001903,0.0142156929205026,1
20,4,575,380,38,-45,-1.84723196648945,-1,0.442775700000311,0.0508102000003419,0.386505200000101,0.0142156929205026,1
13,4,576,240,24,-45,-1.84723196648945,-1,0.364547199999834,0.0502418999994916,0.241202400000475,0.0142156929205026,1
36,4,577,700,70,45,-1.84723196648945,-1,0.500026099999559,0.0480833000001439,0.699796200000492,0.0142156929205026,0
34,4,578,660,66,45,-1.84723196648945,1,0.474008200000753,0.0491934000001493,0.660486699999637,0.0142156929205026,1
12,4,579,220,22,-45,-1.84723196648945,-1,0.461075100000016,0.0418211389651333,0.217008061034903,0.0142156929205026,1
34,4,580,660,66,45,-1.84723196648945,1,0.447799000000487,0.0450907350659691,0.659360164933787,0.0142156929205026,1
15,4,581,280,28,45,-1.84723196648945,-1,0.481359899999916,0.0508203000008507,0.283607699999266,0.0142156929205026,0
27,4,582,520,52,45,-1.84723196648945,-1,0.369332200000827,0.0414849000007962,0.517085599999518,0.0142156929205026,0
43,4,583,840,84,45,-1.84723196648945,1,0.417250999999851,0.0409442688323907,0.837376931167455,0.0142156929205026,1
48,4,584,940,94,45,-1.84723196648945,1,0.502875099999983,0.0467288999998345,0.938567499999408,0.0142156929205026,1
43,4,585,840,84,45,-1.84723196648945,1,0.447515899999416,0.0508755000000747,0.845201500000258,0.0142156929205026,1
14,4,586,260,26,-45,-1.84723196648945,-1,0.453925300000265,0.0410441025987893,0.256932797401532,0.0142156929205026,1
22,4,587,420,42,-45,-1.84723196648945,-1,0.510485899999367,0.045390999999654,0.419748100000106,0.0142156929205026,1
11,4,588,200,20,-45,-1.84723196648945,-1,0.460098900000048,0.0447945389651068,0.199096061034652,0.0142156929205026,1
50,4,589,980,98,45,-1.84723196648945,1,0.483642000000145,0.0505161999999473,0.985471099999813,0.0142156929205026,1
5,4,590,80,8,-45,-1.84723196648945,1,0.464513300000363,0.0400066000001971,0.103560099999413,0.0142156929205026,0
1,4,591,0,0,45,-1.84723196648945,1,0.478411000000051,0.0400091999999859,0.0253506999997626,0.0142156929205026,1
5,4,592,80,8,45,-1.84723196648945,1,0.389214900000297,0.0447026000001642,0.0780627000003733,0.0142156929205026,1
42,4,593,820,82,-45,-1.84723196648945,1,0.482200200000079,0.0446009415645676,0.817360758434916,0.0142156929205026,0
45,4,594,880,88,-45,-1.84723196648945,1,0.457997699999396,0.0404511000006096,0.877183199999308,0.0142156929205026,0
3,4,595,40,4,-45,-1.84723196648945,-1,0.467464100000143,0.0506141999994725,0.0417504000006375,0.0142156929205026,1
32,4,596,620,62,45,-1.84723196648945,-1,0.452707399999781,0.0479007545363856,0.619238100000075,0.0142156929205026,0
25,4,597,480,48,-45,-1.84723196648945,-1,0.405253699999776,0.0450969051989887,0.477634894800758,0.0142156929205026,1
29,4,598,560,56,45,-1.84723196648945,1,0.462078500000644,0.0490550000004077,0.561002499999631,0.0142156929205026,1
32,4,599,620,62,45,-1.84723196648945,1,0.575926900000013,0.0507317999999941,0.621577299999444,0.0142156929205026,1
50,4,600,980,98,45,-1.84723196648945,1,0.468391999999767,0.0419119103971752,0.977586389602038,0.0142156929205026,1
2,4,601,20,2,-45,-1.84723196648945,-1,0.601713499999278,0.0510158999995838,0.0350374999998166,0.0142156929205026,1
7,4,602,120,12,-45,-1.84723196648945,1,0.413255299999946,0.045678799999223,0.117411000000175,0.0142156929205026,0
20,4,603,380,38,45,-1.84723196648945,1,0.471737399999256,0.044642599999861,0.379884899999524,0.0142156929205026,1
38,4,604,740,74,-45,-1.84723196648945,1,0.422753900000316,0.0495887688330185,0.743396531167491,0.0142156929205026,0
10,4,605,180,18,45,-1.84723196648945,1,0.575724499999524,0.0448049000005994,0.179501300000084,0.0142156929205026,1
19,4,606,360,36,-45,-1.84723196648945,-1,0.496133599999666,0.0509582000004229,0.365145899999334,0.0142156929205026,1
3,4,607,40,4,45,-1.84723196648945,1,0.596599200000128,0.0399693999997908,0.0514262999995481,0.0142156929205026,1
51,4,608,1000,100,45,-1.84723196648945,-1,0.483348100000512,0.0496800999999323,1.00255350000043,0.0142156929205026,0
13,4,609,240,24,45,-1.84723196648945,1,0.440070300000116,0.0424109415644125,0.237407258435269,0.0142156929205026,1
24,4,610,460,46,45,-1.84723196648945,1,0.440067200000158,0.0449957000000722,0.458905999999843,0.0142156929205026,1
13,4,611,240,24,-45,-1.84723196648945,-1,0.450517800000853,0.0450313000001188,0.239972999999736,0.0142156929205026,1
27,4,612,520,52,45,-1.84723196648945,1,0.423177899999246,0.0484428999998272,0.520288100000471,0.0142156929205026,1
50,5,613,980,98,-45,-1.84723196648945,1,0.470108599999548,0.0406696000000011,0.97710189999998,0.0142156929205026,0
29,5,614,560,56,-45,-1.84723196648945,1,0.441877900000691,0.049359500000719,0.564713799999481,0.0142156929205026,0
28,5,615,540,54,-45,-1.84723196648945,-1,0.358853699999599,0.0449461999996856,0.539901300000565,0.0142156929205026,1
26,5,616,500,50,45,-1.84723196648945,1,0.42372080000041,0.0507738000005702,0.501468399999794,0.0142156929205026,1
1,5,617,0,0,45,-1.84723196648945,1,0.472344700000576,0.0400398000001587,0.0155938999996579,0.0142156929205026,1
47,5,618,920,92,45,-1.84723196648945,1,0.513130700000147,0.0510232000005999,0.924262599999565,0.0142156929205026,1
1,5,619,0,0,45,-1.84723196648945,1,0.446090899999945,0.0456077999997433,0.00400700000045617,0.0142156929205026,1
28,5,620,540,54,-45,-1.84723196648945,-1,0.397987199999989,0.0410120090973578,0.53696919090271,0.0142156929205026,1
40,5,621,780,78,-45,-1.84723196648945,-1,0.474876500000391,0.0422059779311894,0.778596822068721,0.0142156929205026,1
14,5,622,260,26,45,-1.84723196648945,1,0.423198499999671,0.0504499038997892,0.26224019610072,0.0142156929205026,1
32,5,623,620,62,45,-1.84723196648945,-1,0.507321299999603,0.0436512000005678,0.616979999999785,0.0142156929205026,0
14,5,624,260,26,45,-1.84723196648945,1,0.452528800000437,0.051106200000504,0.264589899999919,0.0142156929205026,1
51,5,625,1000,100,45,-1.84723196648945,1,0.416917499999727,0.0410413090976363,0.997694090902769,0.0142156929205026,1
9,5,626,160,16,-45,-1.84723196648945,-1,0.439822800000002,0.043007971431507,0.157056228568763,0.0142156929205026,1
36,5,627,700,70,-45,-1.84723196648945,1,0.471221199999491,0.044943300000341,0.699961799999983,0.0142156929205026,0
30,5,628,580,58,45,-1.84723196648945,1,0.43387310000071,0.0441650025995841,0.577569897400281,0.0142156929205026,1
18,5,629,340,34,-45,-1.84723196648945,1,0.515991799999938,0.0428207714321616,0.337067328568082,0.0142156929205026,0
36,5,630,700,70,-45,-1.84723196648945,-1,0.403267499999856,0.0483212999997704,0.700372300000708,0.0142156929205026,1
48,5,631,940,94,-45,-1.84723196648945,-1,0.58187960000032,0.0457029415647412,0.940276158435154,0.0142156929205026,1
15,5,632,280,28,45,-1.84723196648945,1,0.434655400000338,0.0511304000001473,0.282343199999559,0.0142156929205026,1
17,5,633,320,32,-45,-1.84723196648945,-1,0.637480800000048,0.0490227000000232,0.321026999999958,0.0142156929205026,1
49,5,634,960,96,45,-1.84723196648945,1,0.648211899999296,0.0420127077977668,0.957473592202405,0.0142156929205026,1
18,5,635,340,34,-45,-1.84723196648945,-1,0.424524399999427,0.0494961000003968,0.34168419999969,0.0142156929205026,1
16,5,636,300,30,45,-1.84723196648945,1,0.506277399999817,0.0434808363652337,0.29830126363413,0.0142156929205026,1
45,5,637,880,88,45,-1.84723196648945,1,0.485994200000277,0.0434580376650047,0.878408462334846,0.0142156929205026,1
4,5,638,60,6,45,-1.84723196648945,1,0.741957100000036,0.039972100000341,0.0663955999998507,0.0142156929205026,1
33,5,639,640,64,45,-1.84723196648945,1,0.472150800000236,0.0425540441638077,0.637209655836159,0.0142156929205026,1
40,5,640,780,78,-45,-1.84723196648945,-1,0.476190099999258,0.0415552389649747,0.777338961034729,0.0142156929205026,1
34,5,641,660,66,45,-1.84723196648945,1,0.453592899999421,0.0411981727320381,0.65717822726765,0.0142156929205026,1
31,5,642,600,60,-45,-1.84723196648945,-1,0.387500299999374,0.0509093999999095,0.601549200000591,0.0142156929205026,1
2,5,643,20,2,-45,-1.84723196648945,-1,0.519459899999674,0.040600500000437,0.0155186000001777,0.0142156929205026,1
43,5,644,840,84,-45,-1.84723196648945,-1,0.574633600000197,0.0435583051994399,0.837758594800107,0.0142156929205026,1
2,5,645,20,2,45,-1.84723196648945,1,0.433098600000449,0.0399900000002162,0.0387825999996494,0.0142156929205026,1
24,5,646,460,46,45,-1.84723196648945,1,0.498945999999705,0.0487684999998237,0.460562199999913,0.0142156929205026,1
35,5,647,680,68,45,-1.84723196648945,1,0.734252799999922,0.0438056753309866,0.677468624669018,0.0142156929205026,1
43,5,648,840,84,45,-1.84723196648945,1,0.446102699999756,0.0444032766308737,0.837361223369044,0.0142156929205026,1
25,5,649,480,48,-45,-1.84723196648945,1,0.712490099999741,0.0508312000001752,0.485087799999746,0.0142156929205026,0
5,5,650,80,8,-45,-1.84723196648945,-1,0.498738999999659,0.0411848000003374,0.100159699999494,0.0142156929205026,1
9,5,651,160,16,45,-1.84723196648945,1,0.500141399999848,0.0453580337662061,0.158717066233294,0.0142156929205026,1
18,5,652,340,34,45,-1.84723196648945,-1,0.436135199999626,0.0430489999998827,0.336720400000559,0.0142156929205026,0
30,5,653,580,58,45,-1.84723196648945,1,0.562692900000002,0.0440394714323702,0.577208228567542,0.0142156929205026,1
22,5,654,420,42,45,-1.84723196648945,1,0.62980669999979,0.0412719337664385,0.417041866233376,0.0142156929205026,1
24,5,655,460,46,-45,-1.84723196648945,-1,0.534789500000443,0.04550239999935,0.459803400000055,0.0142156929205026,1
39,5,656,760,76,-45,-1.84723196648945,-1,0.43623209999987,0.0492834000006042,0.762635299999602,0.0142156929205026,1
47,5,657,920,92,45,-1.84723196648945,1,0.432649800000036,0.0417192714321573,0.917309228568229,0.0142156929205026,1
3,5,658,40,4,-45,-1.84723196648945,-1,0.513253199999781,0.043200699999943,0.0355650000001333,0.0142156929205026,1
38,5,659,740,74,-45,-1.84723196648945,-1,0.40591509999922,0.0408846402642666,0.737378959735906,0.0142156929205026,1
14,5,660,260,26,-45,-1.84723196648945,-1,0.437709699999687,0.0415909727325925,0.257120427268092,0.0142156929205026,1
6,5,661,100,10,45,-1.84723196648945,1,0.484485300000415,0.0399933999997302,0.115188300000227,0.0142156929205026,1
21,5,662,400,40,-45,-1.84723196648945,-1,0.538051399999858,0.0409792116970493,0.397126988303171,0.0142156929205026,1
8,5,663,140,14,45,-1.84723196648945,1,0.492462299999715,0.0435255000002144,0.136513999999806,0.0142156929205026,1
22,5,664,420,42,-45,-1.84723196648945,-1,0.447942699999658,0.0451749389658289,0.418450261034195,0.0142156929205026,1
51,5,665,1000,100,45,-1.84723196648945,-1,0.408675799999401,0.048027633766651,0.999474166233995,0.0142156929205026,0
13,5,666,240,24,-45,-1.84723196648945,-1,0.42318940000041,0.0439385740319267,0.236844825968547,0.0142156929205026,1
12,5,667,220,22,45,-1.84723196648945,1,0.520316399999501,0.045693006498368,0.217967293501715,0.0142156929205026,1
23,5,668,440,44,-45,-1.84723196648945,-1,0.442569799999546,0.0455676000001404,0.440021699999306,0.0142156929205026,1
12,5,669,220,22,-45,-1.84723196648945,-1,0.35908709999967,0.0451425000001109,0.219836899999791,0.0142156929205026,1
15,5,670,280,28,-45,-1.84723196648945,-1,0.427097899999353,0.0451198999999178,0.279799599999933,0.0142156929205026,1
27,5,671,520,52,-45,-1.84723196648945,-1,0.330979200000002,0.0455361999993329,0.519150000000081,0.0142156929205026,1
45,5,672,880,88,45,-1.84723196648945,-1,0.335087499999645,0.0484199000002263,0.880664999999681,0.0142156929205026,0
5,5,673,80,8,-45,-1.84723196648945,-1,0.543724400000428,0.0489351000005627,0.0794857999999294,0.0142156929205026,1
48,5,674,940,94,-45,-1.84723196648945,-1,0.381951399999707,0.0507477999999537,0.942660499999874,0.0142156929205026,1
31,5,675,600,60,-45,-1.84723196648945,-1,0.360471800000596,0.0480643000000782,0.599595599999702,0.0142156929205026,1
40,5,676,780,78,45,-1.84723196648945,1,0.504088300000149,0.0445489000003363,0.779500300000109,0.0142156929205026,1
20,5,677,380,38,45,-1.84723196648945,1,0.490957699999854,0.0437648363649714,0.377059363634544,0.0142156929205026,1
10,5,678,180,18,-45,-1.84723196648945,1,0.483809999999721,0.0433882766310489,0.177050723368666,0.0142156929205026,0
42,5,679,820,82,45,-1.84723196648945,1,0.430139999999483,0.0452702000002319,0.8200096999999,0.0142156929205026,1
3,5,680,40,4,45,-1.84723196648945,1,0.435402699999941,0.0499319000000469,0.0587472000006528,0.0142156929205026,1
44,5,681,860,86,45,-1.84723196648945,1,0.39509150000049,0.043467899999996,0.857202299999699,0.0142156929205026,1
42,5,682,820,82,-45,-1.84723196648945,1,0.460019500000271,0.0479851753316325,0.820015424668782,0.0142156929205026,0
19,5,683,360,36,45,-1.84723196648945,1,0.418074100000013,0.0406856714325841,0.357217428568219,0.0142156929205026,1
30,5,684,580,58,45,-1.84723196648945,1,0.44641109999975,0.0455757337667819,0.579952266233704,0.0142156929205026,1
32,5,685,620,62,-45,-1.84723196648945,-1,0.411780800000088,0.0503607000000557,0.625929599999836,0.0142156929205026,1
13,5,686,240,24,-45,-1.84723196648945,-1,0.422935100000359,0.0512679000003118,0.245464200000242,0.0142156929205026,1
45,5,687,880,88,45,-1.84723196648945,1,0.551621300000079,0.0433451999997487,0.876733000000058,0.0142156929205026,1
10,5,688,180,18,-45,-1.84723196648945,-1,0.390609999999469,0.0408125363655927,0.176773363634311,0.0142156929205026,1
43,5,689,840,84,-45,-1.84723196648945,-1,0.464350700000068,0.0413169389657924,0.837963561034485,0.0142156929205026,1
42,5,690,820,82,45,-1.84723196648945,1,0.438124999999673,0.0502522999995563,0.823280600000544,0.0142156929205026,1
23,5,691,440,44,-45,-1.84723196648945,-1,0.43391900000006,0.0407598350657281,0.437001364934076,0.0142156929205026,1
35,5,692,680,68,45,-1.84723196648945,1,0.540465799999765,0.0445523129965295,0.679132587003551,0.0142156929205026,1
15,5,693,280,28,-45,-1.84723196648945,-1,0.459575400000176,0.0450947999997879,0.279473000000507,0.0142156929205026,1
29,5,694,560,56,45,-1.84723196648945,1,0.439573499999824,0.0510844000000361,0.565359700000045,0.0142156929205026,1
38,5,695,740,74,45,-1.84723196648945,1,0.421552900000279,0.0413410714318161,0.737218628568371,0.0142156929205026,1
25,5,696,480,48,-45,-1.84723196648945,-1,1.16679680000016,0.0490606000003027,0.479845900000328,0.0142156929205026,1
4,5,697,60,6,45,-1.84723196648945,1,0.417675199999394,0.0399338999995962,0.0707379000004948,0.0142156929205026,1
37,5,698,720,72,45,-1.84723196648945,1,0.547063999999409,0.0455704000005426,0.719381099999737,0.0142156929205026,1
12,5,699,220,22,-45,-1.84723196648945,-1,0.606394399999772,0.0407657999994626,0.216752299999825,0.0142156929205026,1
6,5,700,100,10,45,-1.84723196648945,1,0.449986300000091,0.0400849999996353,0.118033100000503,0.0142156929205026,1
33,5,701,640,64,45,-1.84723196648945,-1,0.453936599999906,0.0437680064978849,0.638485793501786,0.0142156929205026,0
8,5,702,140,14,45,-1.84723196648945,1,0.483705100000407,0.0482748999993419,0.140050400000291,0.0142156929205026,1
39,5,703,760,76,-45,-1.84723196648945,-1,0.388966000000437,0.0492258000003858,0.761436300000241,0.0142156929205026,1
38,5,704,740,74,45,-1.84723196648945,1,0.42157380000026,0.0415509337663025,0.737093866233408,0.0142156929205026,1
27,5,705,520,52,-45,-1.84723196648945,-1,0.49784069999987,0.0414828051998484,0.5170686948004,0.0142156929205026,1
6,5,706,100,10,45,-1.84723196648945,1,0.470817499999612,0.0504516000000876,0.102578999999423,0.0142156929205026,1
17,5,707,320,32,-45,-1.84723196648945,1,0.45155270000032,0.0451549999997951,0.319369600000755,0.0142156929205026,0
36,5,708,700,70,-45,-1.84723196648945,-1,0.414133500000389,0.0504221999999572,0.703013700000156,0.0142156929205026,1
37,5,709,720,72,45,-1.84723196648945,-1,0.56483020000087,0.0445743701329775,0.718055529866433,0.0142156929205026,0
1,5,710,0,0,-45,-1.84723196648945,-1,0.48634199999924,0.050720100000035,0.0068437999998423,0.0142156929205026,1
11,5,711,200,20,-45,-1.84723196648945,-1,0.392906899999616,0.0478590337661444,0.199609566233448,0.0142156929205026,1
29,5,712,560,56,45,-1.84723196648945,-1,0.580884500000138,0.0436887999994724,0.55964589999985,0.0142156929205026,0
17,5,713,320,32,-45,-1.84723196648945,-1,0.58460070000001,0.0509752999996635,0.324359000000186,0.0142156929205026,1
34,5,714,660,66,45,-1.84723196648945,1,0.533036900000297,0.0414246779309906,0.657395722068941,0.0142156929205026,1
32,5,715,620,62,-45,-1.84723196648945,-1,0.474774100000104,0.0433338727316368,0.617836327268378,0.0142156929205026,1
5,5,716,80,8,45,-1.84723196648945,1,0.553816000000552,0.0417612999999619,0.0761793000001489,0.0142156929205026,1
44,5,717,860,86,45,-1.84723196648945,1,0.477001799999925,0.041633499999989,0.857306300000346,0.0142156929205026,1
2,5,718,20,2,45,-1.84723196648945,1,0.439854799999921,0.0503247000006013,0.0215395999994143,0.0142156929205026,1
4,5,719,60,6,45,-1.84723196648945,1,0.485119599999962,0.0505419999999503,0.0726846999996269,0.0142156929205026,1
24,5,720,460,46,45,-1.84723196648945,1,0.477516999999352,0.0414669727315413,0.457216427268577,0.0142156929205026,1
44,5,721,860,86,45,-1.84723196648945,1,0.510132200000044,0.040769299999738,0.857063800000105,0.0142156929205026,1
11,5,722,200,20,45,-1.84723196648945,1,0.507465200000297,0.0450762675327496,0.199165532466395,0.0142156929205026,1
21,5,723,400,40,-45,-1.84723196648945,-1,0.535999999999149,0.0434014000002207,0.39683419999983,0.0142156929205026,1
7,5,724,120,12,-45,-1.84723196648945,-1,0.706628599999931,0.051005699999223,0.122561900000619,0.0142156929205026,1
19,5,725,360,36,45,-1.84723196648945,-1,0.481629500000054,0.0500228000000789,0.364681500000188,0.0142156929205026,0
50,5,726,980,98,45,-1.84723196648945,1,0.510255599999255,0.0453797999998642,0.979963800000405,0.0142156929205026,1
7,5,727,120,12,-45,-1.84723196648945,-1,0.429286200000206,0.0452461012991989,0.117240598700846,0.0142156929205026,1
21,5,728,400,40,45,-1.84723196648945,1,0.501331699999355,0.0447869038998761,0.397562496100363,0.0142156929205026,1
28,5,729,540,54,-45,-1.84723196648945,-1,0.444342200000392,0.0416862792299071,0.53793292076989,0.0142156929205026,1
46,5,730,900,90,-45,-1.84723196648945,-1,0.461283999999978,0.0467805999996926,0.899716800000533,0.0142156929205026,1
46,5,731,900,90,-45,-1.84723196648945,-1,0.382541300000412,0.0452146090974566,0.900263890902352,0.0142156929205026,1
39,5,732,760,76,45,-1.84723196648945,-1,0.426044699999693,0.0469180000000051,0.759042900000168,0.0142156929205026,0
19,5,733,360,36,45,-1.84723196648945,1,0.464494100000593,0.0425218000000314,0.356937400000788,0.0142156929205026,1
9,5,734,160,16,-45,-1.84723196648945,1,0.58474010000009,0.0422292753310103,0.156897724668852,0.0142156929205026,0
26,5,735,500,50,45,-1.84723196648945,-1,1.19953710000027,0.0453862000003937,0.499063299999762,0.0142156929205026,0
7,5,736,120,12,-45,-1.84723196648945,1,0.562056800000391,0.0500536999998076,0.139898200000061,0.0142156929205026,0
49,5,737,960,96,-45,-1.84723196648945,-1,0.58359609999934,0.0433456038990698,0.957250196101086,0.0142156929205026,1
3,5,738,40,4,-45,-1.84723196648945,-1,0.478812100000141,0.0450908000002528,0.0366853999994419,0.0142156929205026,1
33,5,739,640,64,-45,-1.84723196648945,-1,0.522323000000142,0.040907800000241,0.637083399999938,0.0142156929205026,1
13,5,740,240,24,45,-1.84723196648945,1,0.473526899999342,0.0413453999999547,0.236985200000163,0.0142156929205026,1
41,5,741,800,80,45,-1.84723196648945,1,0.520752999999786,0.0416745038992303,0.797103396101193,0.0142156929205026,1
35,5,742,680,68,-45,-1.84723196648945,-1,0.574706700000206,0.0510107999998581,0.68607030000021,0.0142156929205026,1
50,5,743,980,98,45,-1.84723196648945,1,0.469987600000422,0.0494951000000583,0.984706500000357,0.0142156929205026,1
16,5,744,300,30,45,-1.84723196648945,1,0.511522100000548,0.0496941000001243,0.302737299999535,0.0142156929205026,1
26,5,745,500,50,45,-1.84723196648945,1,0.401762299999973,0.0447842714320359,0.497042828567828,0.0142156929205026,1
46,5,746,900,90,45,-1.84723196648945,-1,0.552616599999965,0.0500443000000814,0.901026999999885,0.0142156929205026,0
51,5,747,1000,100,-45,-1.84723196648945,1,0.526827900000171,0.0510895999996137,1.00586199999998,0.0142156929205026,0
20,5,748,380,38,45,-1.84723196648945,-1,0.382999700000255,0.0495728000005329,0.382843399999729,0.0142156929205026,0
37,5,749,720,72,-45,-1.84723196648945,-1,0.393175300000621,0.0416360376648299,0.717315162334671,0.0142156929205026,1
31,5,750,600,60,-45,-1.84723196648945,-1,0.553920999999718,0.0400048999999854,0.606144000000313,0.0142156929205026,1
23,5,751,440,44,-45,-1.84723196648945,1,0.481752199999391,0.0410717415643376,0.437142858435436,0.0142156929205026,0
11,5,752,200,20,-45,-1.84723196648945,1,0.626285399999688,0.0515408999999636,0.202419900000677,0.0142156929205026,0
22,5,753,420,42,45,-1.84723196648945,1,0.629408199999489,0.0417182999999568,0.416812100000243,0.0142156929205026,1
8,5,754,140,14,-45,-1.84723196648945,-1,0.488169799999923,0.0448570714324887,0.138753428567725,0.0142156929205026,1
27,5,755,520,52,45,-1.84723196648945,-1,0.481685599999764,0.0511674999997922,0.523164700000052,0.0142156929205026,0
49,5,756,960,96,-45,-1.84723196648945,-1,0.51359390000016,0.0457220999996935,0.960199999999531,0.0142156929205026,1
41,5,757,800,80,45,-1.84723196648945,1,0.442937099999654,0.049556567532818,0.803509832467171,0.0142156929205026,1
16,5,758,300,30,45,-1.84723196648945,1,0.567831800000022,0.0454536363649822,0.298880163634749,0.0142156929205026,1
47,5,759,920,92,45,-1.84723196648945,1,0.490293999999267,0.0455031000001327,0.920113199999832,0.0142156929205026,1
25,5,760,480,48,45,-1.84723196648945,1,0.436501399999543,0.0449881415643176,0.478790358435617,0.0142156929205026,1
34,5,761,660,66,45,-1.84723196648945,1,0.516532599999664,0.042123806498239,0.657522393501495,0.0142156929205026,1
10,5,762,180,18,45,-1.84723196648945,1,0.597553899999184,0.0414738714325722,0.176995428567352,0.0142156929205026,1
48,5,763,940,94,45,-1.84723196648945,1,0.507630600000084,0.0426294389653776,0.937347761034289,0.0142156929205026,1
41,5,764,800,80,45,-1.84723196648945,1,0.537873000000218,0.0495354999993651,0.804565400000683,0.0142156929205026,1
20,5,765,380,38,-45,-1.84723196648945,1,0.457775400000173,0.0445134792298632,0.378001020770171,0.0142156929205026,0
8,6,766,140,14,45,-1.84723196648945,1,0.464191699999901,0.0502913999998782,0.141053600000305,0.0142156929205026,1
25,6,767,480,48,45,-1.84723196648945,1,0.602647699999579,0.0495837999997093,0.483870099999876,0.0142156929205026,1
48,6,768,940,94,-45,-1.84723196648945,1,0.61870959999942,0.0437084038994726,0.937359796100282,0.0142156929205026,0
33,6,769,640,64,45,-1.84723196648945,1,0.631395700000212,0.0512817999997424,0.645601500000339,0.0142156929205026,1
51,6,770,1000,100,-45,-1.84723196648945,1,0.475342800000362,0.044907499999681,0.999905599999693,0.0142156929205026,0
7,6,771,120,12,45,-1.84723196648945,1,0.47831910000059,0.0447377999998935,0.116500199999791,0.0142156929205026,1
38,6,772,740,74,45,-1.84723196648945,-1,0.498816099999203,0.051060800000414,0.746500399999604,0.0142156929205026,0
9,6,773,160,16,-45,-1.84723196648945,1,0.45991370000047,0.049812700000075,0.161877999999888,0.0142156929205026,0
26,6,774,500,50,45,-1.84723196648945,1,0.694023900000502,0.0410638753310195,0.497082224669612,0.0142156929205026,1
8,6,775,140,14,45,-1.84723196648945,1,0.46211779999976,0.0494651999997586,0.144019100000151,0.0142156929205026,1
33,6,776,640,64,-45,-1.84723196648945,-1,0.397448300000178,0.0493667999999161,0.64092619999974,0.0142156929205026,1
23,6,777,440,44,45,-1.84723196648945,1,0.478190599999834,0.0435085389653977,0.438510861034047,0.0142156929205026,1
2,6,778,20,2,-45,-1.84723196648945,-1,0.740185999999994,0.0510661000007531,0.0247767999999269,0.0142156929205026,1
19,6,779,360,36,45,-1.84723196648945,-1,0.601161999999931,0.0473038999998607,0.359589900000174,0.0142156929205026,0
21,6,780,400,40,-45,-1.84723196648945,1,0.513960199999929,0.0457334000002447,0.399872399999367,0.0142156929205026,0
51,6,781,1000,100,-45,-1.84723196648945,-1,0.516335199999958,0.0496790999995937,1.00189399999999,0.0142156929205026,1
15,6,782,280,28,-45,-1.84723196648945,1,0.520127400000092,0.0478013000001738,0.2796701999996,0.0142156929205026,0
49,6,783,960,96,-45,-1.84723196648945,1,0.528793200000109,0.0476542000005793,0.959616099999948,0.0142156929205026,0
2,6,784,20,2,-45,-1.84723196648945,-1,0.555202200000167,0.0400150999994366,0.0448876000000382,0.0142156929205026,1
50,6,785,980,98,-45,-1.84723196648945,-1,0.424436199999946,0.0501143000001321,0.981128299999909,0.0142156929205026,1
35,6,786,680,68,45,-1.84723196648945,1,0.532029800000601,0.0487126000007265,0.683279899999434,0.0142156929205026,1
22,6,787,420,42,45,-1.84723196648945,1,0.613413600000058,0.0413331999998263,0.416918500000065,0.0142156929205026,1
18,6,788,340,34,-45,-1.84723196648945,-1,0.645520699999906,0.0496782000000167,0.344691400000556,0.0142156929205026,1
20,6,789,380,38,-45,-1.84723196648945,-1,0.620083599999816,0.0430356000006213,0.376718200000141,0.0142156929205026,1
9,6,790,160,16,45,-1.84723196648945,-1,0.649300900000526,0.0419590000001335,0.156700600000477,0.0142156929205026,0
38,6,791,740,74,-45,-1.84723196648945,-1,0.567341699999815,0.049546499999451,0.742643900000076,0.0142156929205026,1
15,6,792,280,28,-45,-1.84723196648945,-1,0.568807800000286,0.0477990999997928,0.279454900000019,0.0142156929205026,1
20,6,793,380,38,45,-1.84723196648945,1,0.796993700000712,0.0417774753304911,0.377160824668863,0.0142156929205026,1
37,6,794,720,72,45,-1.84723196648945,-1,0.490491900000052,0.0405514000003677,0.716999100000066,0.0142156929205026,0
44,6,795,860,86,45,-1.84723196648945,1,0.446052399999644,0.0497677999992447,0.864314600000398,0.0142156929205026,1
41,6,796,800,80,-45,-1.84723196648945,-1,0.467062200000328,0.0452596000004633,0.799874600000294,0.0142156929205026,1
45,6,797,880,88,45,-1.84723196648945,-1,0.67880950000017,0.0512805999996999,0.886130400000184,0.0142156929205026,0
23,6,798,440,44,45,-1.84723196648945,-1,4.97854980000011,0.0404897999997047,0.436897100000351,0.0142156929205026,0
27,6,799,520,52,-45,-1.84723196648945,-1,0.458524300000136,0.0451871000004758,0.519884999999704,0.0142156929205026,1
24,6,800,460,46,45,-1.84723196648945,-1,0.646079500000269,0.0455527000003713,0.460008899999593,0.0142156929205026,0
37,6,801,720,72,45,-1.84723196648945,1,0.546424600000137,0.0454288000000815,0.720113600000332,0.0142156929205026,1
13,6,802,240,24,45,-1.84723196648945,-1,0.557311699999445,0.0495854000000691,0.240674900000158,0.0142156929205026,0
14,6,803,260,26,45,-1.84723196648945,1,0.748192000000017,0.0476149999994959,0.259900000000016,0.0142156929205026,1
39,6,804,760,76,-45,-1.84723196648945,-1,0.510189300000093,0.0441089727319195,0.757857127267926,0.0142156929205026,1
41,6,805,800,80,-45,-1.84723196648945,-1,0.521971600000143,0.0495758999995815,0.804742300000726,0.0142156929205026,1
25,6,806,480,48,-45,-1.84723196648945,-1,0.455975500000022,0.0418450000006487,0.477745299999697,0.0142156929205026,1
43,6,807,840,84,-45,-1.84723196648945,-1,0.491906899999776,0.0452205337660416,0.838769566234078,0.0142156929205026,1
29,6,808,560,56,-45,-1.84723196648945,-1,0.45570989999942,0.0434704999997848,0.556996899999831,0.0142156929205026,1
36,6,809,700,70,45,-1.84723196648945,1,0.491194500000347,0.0510450000001583,0.705885000000308,0.0142156929205026,1
36,6,810,700,70,45,-1.84723196648945,1,0.509459199999583,0.0414389441639287,0.697384455836072,0.0142156929205026,1
30,6,811,580,58,-45,-1.84723196648945,1,0.566374099999848,0.0497062000004007,0.583743999999569,0.0142156929205026,0
7,6,812,120,12,45,-1.84723196648945,1,0.546823000000586,0.0406766000005518,0.116390999999567,0.0142156929205026,1
4,6,813,60,6,-45,-1.84723196648945,1,0.478605200000857,0.0407541454633247,0.0564964545365001,0.0142156929205026,0
47,6,814,920,92,45,-1.84723196648945,-1,0.443143399999826,0.0448111675323162,0.919857032467917,0.0142156929205026,0
44,6,815,860,86,-45,-1.84723196648945,-1,0.43908779999947,0.0452087064986699,0.859769893501834,0.0142156929205026,1
18,6,816,340,34,-45,-1.84723196648945,1,0.488056199999846,0.0500833999994938,0.341488900000513,0.0142156929205026,0
31,6,817,600,60,45,-1.84723196648945,1,0.443088799999714,0.0446033000007446,0.599962499999492,0.0142156929205026,1
7,6,818,120,12,45,-1.84723196648945,-1,0.475242499999695,0.0448341999999684,0.119578400000137,0.0142156929205026,0
4,6,819,60,6,-45,-1.84723196648945,-1,0.456994700000905,0.0400103000001764,0.0789377000000968,0.0142156929205026,1
35,6,820,680,68,-45,-1.84723196648945,-1,0.435158799999954,0.0509758999996848,0.681863100000555,0.0142156929205026,1
16,6,821,300,30,-45,-1.84723196648945,-1,0.518853199999285,0.0454170000002705,0.299758600000132,0.0142156929205026,1
14,6,822,260,26,-45,-1.84723196648945,-1,0.467717000000448,0.0509879000001092,0.264926099999684,0.0142156929205026,1
26,6,823,500,50,-45,-1.84723196648945,-1,0.42112249999991,0.0507019000006039,0.504118399999243,0.0142156929205026,1
6,6,824,100,10,45,-1.84723196648945,-1,0.485008799999378,0.0430588999997781,0.0962368999998944,0.0142156929205026,0
34,6,825,660,66,-45,-1.84723196648945,-1,0.42308839999987,0.049602799999775,0.663187799999832,0.0142156929205026,1
32,6,826,620,62,-45,-1.84723196648945,-1,0.52208630000041,0.0445855753305295,0.617094524669483,0.0142156929205026,1
14,6,827,260,26,-45,-1.84723196648945,-1,0.442224200000055,0.0490476999993916,0.260967400000482,0.0142156929205026,1
45,6,828,880,88,45,-1.84723196648945,1,0.504818299999897,0.0421218999999837,0.877023999999437,0.0142156929205026,1
28,6,829,540,54,-45,-1.84723196648945,-1,0.877812800000356,0.0412512363654969,0.537120263634279,0.0142156929205026,1
11,6,830,200,20,45,-1.84723196648945,1,0.525417300000299,0.0443024454634724,0.198355654536499,0.0142156929205026,1
45,6,831,880,88,45,-1.84723196648945,-1,0.792019999999866,0.0497070000001258,0.886294299999463,0.0142156929205026,0
12,6,832,220,22,45,-1.84723196648945,1,0.559590500000013,0.0496726999999737,0.222810499999468,0.0142156929205026,1
1,6,833,0,0,45,-1.84723196648945,-1,0.468872899999951,0.0412544000000707,0.0175428000002285,0.0142156929205026,0
16,6,834,300,30,-45,-1.84723196648945,-1,0.515327300000536,0.0482805688325243,0.300016331167171,0.0142156929205026,1
46,6,835,900,90,-45,-1.84723196648945,-1,0.498411900000065,0.0440113103968542,0.897248389603192,0.0142156929205026,1
32,6,836,620,62,-45,-1.84723196648945,-1,0.508308499999657,0.0493980000001102,0.626266599999326,0.0142156929205026,1
5,6,837,80,8,-45,-1.84723196648945,-1,0.472376600000644,0.0426906000002418,0.0768889999999374,0.0142156929205026,1
39,6,838,760,76,-45,-1.84723196648945,-1,1.18408910000016,0.0506459999996878,0.765268000000106,0.0142156929205026,1
1,6,839,0,0,-45,-1.84723196648945,-1,0.54744380000011,0.0432860000000801,0.00119579999955022,0.0142156929205026,1
42,6,840,820,82,45,-1.84723196648945,1,0.446595200000047,0.0467349714317606,0.818523528568221,0.0142156929205026,1
10,6,841,180,18,-45,-1.84723196648945,-1,0.437880399999813,0.0413590999996813,0.176791799999592,0.0142156929205026,1
42,6,842,820,82,-45,-1.84723196648945,-1,0.574501500000224,0.0457167000004119,0.820203100000072,0.0142156929205026,1
21,6,843,400,40,45,-1.84723196648945,1,0.409474600000067,0.0414787025993064,0.39700169740081,0.0142156929205026,1
44,6,844,860,86,-45,-1.84723196648945,-1,0.424332200000208,0.045641503898878,0.857916596100949,0.0142156929205026,1
31,6,845,600,60,45,-1.84723196648945,1,0.431332600000133,0.0499923000006675,0.606643000000076,0.0142156929205026,1
24,6,846,460,46,45,-1.84723196648945,-1,1.04654310000024,0.045524267532528,0.459991132467621,0.0142156929205026,0
3,6,847,40,4,45,-1.84723196648945,1,0.476204999999936,0.0453666000003068,0.0383597000000009,0.0142156929205026,1
39,6,848,760,76,-45,-1.84723196648945,-1,0.574467800000093,0.043880702599381,0.757329197400395,0.0142156929205026,1
36,6,849,700,70,-45,-1.84723196648945,-1,0.461060899999211,0.0415788000000248,0.696962999999414,0.0142156929205026,1
17,6,850,320,32,-45,-1.84723196648945,-1,0.553364300000794,0.0413601415639278,0.317034658435659,0.0142156929205026,1
19,6,851,360,36,45,-1.84723196648945,1,0.513439899999867,0.0416035999996893,0.356888400000571,0.0142156929205026,1
48,6,852,940,94,-45,-1.84723196648945,-1,0.443990899999335,0.0496161999999458,0.946098899999924,0.0142156929205026,1
12,6,853,220,22,-45,-1.84723196648945,1,0.460469300000113,0.0510482999998203,0.224158899999566,0.0142156929205026,0
34,6,854,660,66,45,-1.84723196648945,1,0.741520200000195,0.041409499999645,0.657194999999774,0.0142156929205026,1
5,6,855,80,8,-45,-1.84723196648945,-1,0.599372499999845,0.0442456000000675,0.0764798999998675,0.0142156929205026,1
32,6,856,620,62,-45,-1.84723196648945,1,0.506258899999921,0.0500296999998682,0.626703400000224,0.0142156929205026,0
28,6,857,540,54,-45,-1.84723196648945,-1,0.438719600000695,0.047098572732466,0.538373127267732,0.0142156929205026,1
9,6,858,160,16,-45,-1.84723196648945,-1,0.442421300000206,0.0410458999995171,0.156448100000489,0.0142156929205026,1
43,6,859,840,84,45,-1.84723196648945,-1,0.446827599999779,0.0437633779301905,0.837411422069636,0.0142156929205026,0
