isi,block,trial,isi_ms,isi_frames,theta,log_cnt,resp,rt,stim_duration,blank_duration,cnt,correct
40,1,1,780,78,-45,-1.69533472070549,-1,1.11400689999937,0.0503212000003259,0.782748300000094,0.0201681136180557,1
4,1,2,60,6,-45,-1.69533472070549,1,1.34064370000124,0.0435508000009577,0.0561309000004258,0.0201681136180557,0
6,1,3,100,10,-45,-1.69533472070549,-1,0.712676900002407,0.0502480662034941,0.101118999999017,0.0201681136180557,1
12,1,4,220,22,-45,-1.69533472070549,-1,0.519317399997817,0.0469432000027155,0.217384699997638,0.0201681136180557,1
1,1,5,0,0,-45,-1.69533472070549,-1,0.574014300000272,0.0469929999999295,0.00296840000009979,0.0201681136180557,1
30,1,6,580,58,45,-1.69533472070549,1,0.923587899997074,0.0482069999998203,0.579909199997928,0.0201681136180557,1
27,1,7,520,52,-45,-1.69533472070549,-1,0.449202700001479,0.0496094999980414,0.525259199999709,0.0201681136180557,1
14,1,8,260,26,-45,-1.69533472070549,-1,0.565838899998198,0.0412497999968764,0.256825500000559,0.0201681136180557,1
46,1,9,900,90,-45,-1.69533472070549,-1,0.517044000000169,0.0414767703914549,0.897274629609456,0.0201681136180557,1
31,1,10,600,60,-45,-1.69533472070549,-1,0.499561299999186,0.0497259999974631,0.602217500003462,0.0201681136180557,1
31,1,11,600,60,-45,-1.69533472070549,-1,0.539005999999063,0.0465327999991132,0.598300199999358,0.0201681136180557,1
50,1,12,980,98,45,-1.69533472070549,1,1.5477764999996,0.0484394000013708,0.979853599998023,0.0201681136180557,1
3,1,13,40,4,-45,-1.69533472070549,-1,0.505663300002198,0.047728499997902,0.0386575000011362,0.0201681136180557,1
36,1,14,700,70,45,-1.69533472070549,-1,0.479950799999642,0.0500504000010551,0.702054400000634,0.0201681136180557,0
22,1,15,420,42,-45,-1.69533472070549,-1,0.448469800001476,0.0451279000008071,0.418118000001414,0.0201681136180557,1
48,1,16,940,94,45,-1.69533472070549,1,0.73441610000009,0.0410365999996429,0.936835800002882,0.0201681136180557,1
29,1,17,560,56,45,-1.69533472070549,-1,0.473148699999001,0.0417138000011619,0.557272399997601,0.0201681136180557,0
41,1,18,800,80,45,-1.69533472070549,-1,0.601091500000621,0.0419695999989926,0.796976499997982,0.0201681136180557,0
14,1,19,260,26,-45,-1.69533472070549,-1,0.470175499998732,0.0495450000016717,0.264306099998066,0.0201681136180557,1
11,1,20,200,20,-45,-1.69533472070549,-1,0.525641300002462,0.0439932000008412,0.198724599998968,0.0201681136180557,1
28,1,21,540,54,45,-1.69533472070549,1,0.665132599999197,0.0449128000000201,0.538139600001159,0.0201681136180557,1
39,1,22,760,76,-45,-1.69533472070549,-1,0.484612100000959,0.0496884999993199,0.761879100002261,0.0201681136180557,1
7,1,23,120,12,45,-1.69533472070549,1,0.702679300000455,0.0447494999971241,0.116516300000512,0.0201681136180557,1
14,1,24,260,26,-45,-1.69533472070549,-1,0.406794099999388,0.0405169999976351,0.256570300000021,0.0201681136180557,1
18,1,25,340,34,45,-1.69533472070549,1,0.421034499999223,0.0501107000018237,0.345182399996702,0.0201681136180557,1
3,1,26,40,4,-45,-1.69533472070549,-1,0.449905199999193,0.0502122999969288,0.0438252000021748,0.0201681136180557,1
37,1,27,720,72,45,-1.69533472070549,1,0.836778799999593,0.045110900002328,0.718372100000124,0.0201681136180557,1
40,1,28,780,78,45,-1.69533472070549,1,0.475641499997437,0.043045999998867,0.776943100001517,0.0201681136180557,1
50,1,29,980,98,-45,-1.69533472070549,-1,0.469404899999063,0.0414660999995249,0.976998599999206,0.0201681136180557,1
18,1,30,340,34,-45,-1.69533472070549,-1,0.477022200000647,0.0474380000014207,0.33907679999902,0.0201681136180557,1
50,1,31,980,98,45,-1.69533472070549,1,0.558456200000364,0.0455970000002708,0.979937899999641,0.0201681136180557,1
18,1,32,340,34,-45,-1.69533472070549,-1,0.470819900001516,0.0495114000004833,0.34354710000116,0.0201681136180557,1
38,1,33,740,74,45,-1.69533472070549,1,0.692416100002447,0.0423824999998033,0.736985700001242,0.0201681136180557,1
7,1,34,120,12,-45,-1.69533472070549,-1,0.446859700001369,0.0442456000018865,0.116763699999865,0.0201681136180557,1
2,1,35,20,2,-45,-1.69533472070549,-1,0.565538200000447,0.0493284000003769,0.0250266000002739,0.0201681136180557,1
3,1,36,40,4,-45,-1.69533472070549,-1,0.624182999999903,0.0509856999997282,0.0448251999987406,0.0201681136180557,1
24,1,37,460,46,45,-1.69533472070549,1,0.502646400000231,0.0456147000004421,0.459777899999608,0.0201681136180557,1
32,1,38,620,62,-45,-1.69533472070549,-1,0.430582699998922,0.0404387000016868,0.616637800001627,0.0201681136180557,1
40,1,39,780,78,45,-1.69533472070549,1,0.429555200000323,0.0407100999982504,0.777967800000624,0.0201681136180557,1
12,1,40,220,22,-45,-1.69533472070549,-1,0.399577000000136,0.0500233999991906,0.222006899999542,0.0201681136180557,1
15,1,41,280,28,-45,-1.69533472070549,1,1.10633149999921,0.0412189999988186,0.276725800002168,0.0201681136180557,0
44,1,42,860,86,45,-1.69533472070549,1,0.561755399998219,0.0492536999990989,0.860879300002125,0.0201681136180557,1
7,1,43,120,12,45,-1.69533472070549,-1,0.386244100001932,0.0413855999977386,0.116399400001683,0.0201681136180557,0
19,1,44,360,36,-45,-1.69533472070549,-1,0.502707999999984,0.0492694000022311,0.360260099998413,0.0201681136180557,1
32,1,45,620,62,45,-1.69533472070549,1,0.419199099997059,0.0484823310071079,0.620321594411507,0.0201681136180557,1
51,1,46,1000,100,-45,-1.69533472070549,-1,0.404111399999238,0.0500740731877158,1.00177332681051,0.0201681136180557,1
39,1,47,760,76,-45,-1.69533472070549,-1,0.410362800001167,0.045770699998684,0.759710099999211,0.0201681136180557,1
37,1,48,720,72,45,-1.69533472070549,1,0.553792399998201,0.0412175999990723,0.716888600003585,0.0201681136180557,1
45,1,49,880,88,45,-1.69533472070549,-1,0.441506200000731,0.0410794000017631,0.877122099998815,0.0201681136180557,0
30,1,50,580,58,-45,-1.69533472070549,-1,0.48605680000037,0.0504965000000084,0.583592199996929,0.0201681136180557,1
42,1,51,820,82,45,-1.69533472070549,1,0.45990090000123,0.0485038999977405,0.81980459999977,0.0201681136180557,1
1,1,52,0,0,45,-1.69533472070549,-1,1.08676460000061,0.0467260999976133,0.00250289999894449,0.0201681136180557,0
16,1,53,300,30,-45,-1.69533472070549,-1,0.632334699999774,0.0448832000001858,0.298935499999061,0.0201681136180557,1
16,1,54,300,30,45,-1.69533472070549,-1,0.771290099997714,0.0484763999993447,0.300175899999886,0.0201681136180557,0
48,1,55,940,94,45,-1.69533472070549,1,0.382193599998573,0.049665599999571,0.943691300002683,0.0201681136180557,1
19,1,56,360,36,45,-1.69533472070549,1,0.811217200000101,0.0453584999995655,0.359568600000784,0.0201681136180557,1
25,1,57,480,48,-45,-1.69533472070549,-1,0.521889600000577,0.0411256000006688,0.476577100002032,0.0201681136180557,1
13,1,58,240,24,-45,-1.69533472070549,1,0.47335910000038,0.041523200001393,0.236921399999119,0.0201681136180557,0
47,1,59,920,92,45,-1.69533472070549,1,0.479691500000627,0.0431938000001537,0.916985100000602,0.0201681136180557,1
20,1,60,380,38,-45,-1.69533472070549,-1,0.506670899998426,0.044548500001838,0.37649379999857,0.0201681136180557,1
5,1,61,80,8,-45,-1.69533472070549,-1,0.546654699999635,0.0467578999996476,0.0782004000029701,0.0201681136180557,1
45,1,62,880,88,45,-1.69533472070549,1,0.660468300000502,0.0458599000012327,0.877158399998734,0.0201681136180557,1
44,1,63,860,86,-45,-1.69533472070549,-1,0.448957299999165,0.0497001000003365,0.861235899999883,0.0201681136180557,1
17,1,64,320,32,45,-1.69533472070549,1,0.955065699999977,0.05111389999729,0.321727200000169,0.0201681136180557,1
9,1,65,160,16,-45,-1.69533472070549,-1,0.651041100001748,0.0495618999993894,0.162994300000719,0.0201681136180557,1
33,1,66,640,64,45,-1.69533472070549,1,0.522472900000139,0.0404742999999144,0.636954699999478,0.0201681136180557,1
28,1,67,540,54,-45,-1.69533472070549,-1,0.62361559999772,0.0498621000006096,0.542079399998329,0.0201681136180557,1
6,1,68,100,10,45,-1.69533472070549,1,0.639437499998166,0.046992899999168,0.0979255000020203,0.0201681136180557,1
47,1,69,920,92,45,-1.69533472070549,1,0.420011100002739,0.0496056999982102,0.922260499999538,0.0201681136180557,1
23,1,70,440,44,-45,-1.69533472070549,-1,0.436183199999505,0.0505168000017875,0.441194899998663,0.0201681136180557,1
5,1,71,80,8,-45,-1.69533472070549,1,0.579699999998411,0.0466531999991275,0.077612400000362,0.0201681136180557,0
15,1,72,280,28,-45,-1.69533472070549,-1,0.466548799999146,0.0406094999998459,0.276340100001107,0.0201681136180557,1
34,1,73,660,66,-45,-1.69533472070549,-1,0.479885799999465,0.0454378000031284,0.658756400000129,0.0201681136180557,1
2,1,74,20,2,45,-1.69533472070549,1,0.535518000000593,0.0403326000014204,0.0156105999994907,0.0201681136180557,1
9,1,75,160,16,45,-1.69533472070549,1,0.489342699998815,0.0421089999981632,0.156302700001106,0.0201681136180557,1
44,1,76,860,86,45,-1.69533472070549,1,0.718760499999917,0.0406337999993411,0.856867700000294,0.0201681136180557,1
29,1,77,560,56,-45,-1.69533472070549,-1,0.467876299997442,0.0456200999979046,0.558850400000665,0.0201681136180557,1
4,1,78,60,6,-45,-1.69533472070549,-1,0.507139299999835,0.0431558337986644,0.0579531662006048,0.0201681136180557,1
2,1,79,20,2,-45,-1.69533472070549,-1,0.517130399999587,0.0434719000004407,0.0156571000006807,0.0201681136180557,1
45,1,80,880,88,45,-1.69533472070549,1,0.521909700000833,0.0413494999993418,0.876850699998613,0.0201681136180557,1
46,1,81,900,90,-45,-1.69533472070549,-1,0.46880130000136,0.0416794999982812,0.896978000000672,0.0201681136180557,1
25,1,82,480,48,-45,-1.69533472070549,-1,0.653894900002342,0.0493243000018992,0.480365999999776,0.0201681136180557,1
23,1,83,440,44,45,-1.69533472070549,1,0.434871700002986,0.0403719999994792,0.436607700001332,0.0201681136180557,1
46,1,84,900,90,-45,-1.69533472070549,-1,0.417454700000235,0.0449564999980794,0.897529600002599,0.0201681136180557,1
24,1,85,460,46,45,-1.69533472070549,1,0.463651499998377,0.0499758999976621,0.462503599999764,0.0201681136180557,1
47,1,86,920,92,45,-1.69533472070549,1,0.44246099999873,0.0451936351964832,0.920132264804124,0.0201681136180557,1
19,1,87,360,36,45,-1.69533472070549,1,0.651661100000638,0.0452724337992549,0.359430366199376,0.0201681136180557,1
21,1,88,400,40,-45,-1.69533472070549,1,0.439955100002408,0.0513721999996051,0.404149400001188,0.0201681136180557,0
23,1,89,440,44,-45,-1.69533472070549,-1,0.430842199999461,0.0441384999976435,0.436705899999652,0.0201681136180557,1
15,1,90,280,28,45,-1.69533472070549,1,0.562302499998623,0.0407653000002028,0.276538199999777,0.0201681136180557,1
22,1,91,420,42,-45,-1.69533472070549,-1,0.43077749999793,0.0453784999990603,0.419768200001272,0.0201681136180557,1
4,1,92,60,6,-45,-1.69533472070549,-1,0.475491199998942,0.0435593000001973,0.0562067999999272,0.0201681136180557,1
51,1,93,1000,100,45,-1.69533472070549,1,0.555952499998966,0.0448341000010259,0.998890799997753,0.0201681136180557,1
26,1,94,500,50,45,-1.69533472070549,1,0.484560500000953,0.0423757999997179,0.496901799997431,0.0201681136180557,1
10,1,95,180,18,-45,-1.69533472070549,-1,0.449412699999812,0.0457153999996081,0.176820700002281,0.0201681136180557,1
11,1,96,200,20,-45,-1.69533472070549,-1,0.449341699997603,0.041736300001503,0.196747699999833,0.0201681136180557,1
1,1,97,0,0,45,-1.69533472070549,-1,0.628496599998471,0.0421843000003719,0.00132799999846611,0.0201681136180557,0
42,1,98,820,82,45,-1.69533472070549,-1,0.575576699997328,0.0453330351992918,0.819308164802351,0.0201681136180557,0
13,1,99,240,24,45,-1.69533472070549,-1,1.19337139999698,0.0495805999998993,0.24453419999918,0.0201681136180557,0
13,1,100,240,24,-45,-1.69533472070549,1,0.473332000001392,0.0417481000004045,0.23654230000102,0.0201681136180557,0
29,1,101,560,56,45,-1.69533472070549,1,0.487842700000328,0.0431631689934875,0.557102631006273,0.0201681136180557,1
34,1,102,660,66,-45,-1.69533472070549,-1,0.467063399999461,0.0438862999981211,0.656863900003373,0.0201681136180557,1
41,1,103,800,80,45,-1.69533472070549,1,0.553180700000667,0.0512920000001031,0.803074200000992,0.0201681136180557,1
49,1,104,960,96,45,-1.69533472070549,1,0.403472500001953,0.0454291999994894,0.9591975000003,0.0201681136180557,1
12,1,105,220,22,-45,-1.69533472070549,-1,0.452669100002822,0.0480014000022493,0.219567399999505,0.0201681136180557,1
34,1,106,660,66,45,-1.69533472070549,1,0.612570900000719,0.0507141999987653,0.664406600000802,0.0201681136180557,1
26,1,107,500,50,-45,-1.69533472070549,-1,0.558872699999483,0.0467209999987972,0.498278600000049,0.0201681136180557,1
43,1,108,840,84,-45,-1.69533472070549,-1,0.495667300001514,0.0430381000005582,0.83691589999944,0.0201681136180557,1
17,1,109,320,32,45,-1.69533472070549,-1,0.52577139999994,0.0496662000005017,0.320558700001129,0.0201681136180557,0
49,1,110,960,96,45,-1.69533472070549,1,0.690550900002563,0.0455795000016224,0.960224300000846,0.0201681136180557,1
39,1,111,760,76,-45,-1.69533472070549,-1,0.466111999998247,0.0498035860327946,0.763978299997689,0.0201681136180557,1
35,1,112,680,68,-45,-1.69533472070549,-1,0.560923900000489,0.0416311999979371,0.677044300002308,0.0201681136180557,1
36,1,113,700,70,45,-1.69533472070549,1,0.589998899999046,0.04941129999861,0.704523100001097,0.0201681136180557,1
35,1,114,680,68,-45,-1.69533472070549,1,0.52863939999952,0.0424603999999817,0.676649000000907,0.0201681136180557,0
17,1,115,320,32,45,-1.69533472070549,1,0.566452899998694,0.0445020999977714,0.316979200000787,0.0201681136180557,1
20,1,116,380,38,45,-1.69533472070549,1,0.614661200001137,0.0455995000011171,0.379456099999516,0.0201681136180557,1
21,1,117,400,40,45,-1.69533472070549,1,1.09835209999801,0.0486314000008861,0.404835800000001,0.0201681136180557,1
33,1,118,640,64,45,-1.69533472070549,1,0.698295999998663,0.040571400000772,0.636750300000131,0.0201681136180557,1
10,1,119,180,18,-45,-1.69533472070549,-1,0.439636700000847,0.0497895000007702,0.182351600000402,0.0201681136180557,1
31,1,120,600,60,45,-1.69533472070549,1,0.549212699999771,0.0492202000023099,0.601218899999367,0.0201681136180557,1
43,1,121,840,84,-45,-1.69533472070549,-1,1.32401930000196,0.0448281999997562,0.838824399997975,0.0201681136180557,1
9,1,122,160,16,45,-1.69533472070549,1,0.521449900003063,0.0417183999998088,0.156610300000466,0.0201681136180557,1
27,1,123,520,52,-45,-1.69533472070549,-1,0.432666000000609,0.050792132402421,0.524387900000875,0.0201681136180557,1
35,1,124,680,68,45,-1.69533472070549,1,0.46566150000217,0.0505311999986588,0.683574800001225,0.0201681136180557,1
41,1,125,800,80,-45,-1.69533472070549,1,1.41804369999954,0.0511522999986482,0.802663500002382,0.0201681136180557,0
37,1,126,720,72,45,-1.69533472070549,1,0.59150260000024,0.0480955999992148,0.720099099999061,0.0201681136180557,1
21,1,127,400,40,-45,-1.69533472070549,-1,0.425313799998548,0.0421088999974017,0.396658600002411,0.0201681136180557,1
8,1,128,140,14,-45,-1.69533472070549,-1,0.509936999998899,0.0498373000009451,0.144362400002137,0.0201681136180557,1
24,1,129,460,46,-45,-1.69533472070549,-1,0.493232799999532,0.0511121999988973,0.463282500000787,0.0201681136180557,1
16,1,130,300,30,-45,-1.69533472070549,-1,0.508408500001678,0.0432202000010875,0.296518299997842,0.0201681136180557,1
26,1,131,500,50,45,-1.69533472070549,1,0.468976000000112,0.0496290999981284,0.505289300002914,0.0201681136180557,1
5,1,132,80,8,-45,-1.69533472070549,-1,0.534374099999695,0.043674535194441,0.077851464804553,0.0201681136180557,1
48,1,133,940,94,45,-1.69533472070549,1,0.650640799998655,0.050973160610738,0.94647729999997,0.0201681136180557,1
42,1,134,820,82,-45,-1.69533472070549,-1,0.487809300000663,0.0496557296064566,0.822280599997612,0.0201681136180557,1
8,1,135,140,14,45,-1.69533472070549,-1,0.510905999999522,0.0413530000005267,0.135531899999478,0.0201681136180557,0
33,1,136,640,64,-45,-1.69533472070549,-1,0.481243399997766,0.047617000000173,0.639306100001704,0.0201681136180557,1
10,1,137,180,18,45,-1.69533472070549,1,0.625275700000202,0.0448074000014458,0.177666799998406,0.0201681136180557,1
43,1,138,840,84,-45,-1.69533472070549,-1,0.444156599998678,0.0448027999991609,0.838929400000779,0.0201681136180557,1
36,1,139,700,70,-45,-1.69533472070549,-1,0.450097500000993,0.0489495000001625,0.700906800000666,0.0201681136180557,1
49,1,140,960,96,-45,-1.69533472070549,-1,0.378264099999797,0.0410063000017544,0.95700829999987,0.0201681136180557,1
38,1,141,740,74,45,-1.69533472070549,1,0.422257700000046,0.0511981999989075,0.742108999998891,0.0201681136180557,1
22,1,142,420,42,45,-1.69533472070549,1,0.485683400002017,0.0414932000021508,0.416604300000472,0.0201681136180557,1
20,1,143,380,38,45,-1.69533472070549,1,0.462579499999265,0.0511118999966129,0.382646700003534,0.0201681136180557,1
8,1,144,140,14,45,-1.69533472070549,1,0.575227400000585,0.0511846000008518,0.141625099997327,0.0201681136180557,1
38,1,145,740,74,-45,-1.69533472070549,1,0.670595100000355,0.0455593999977282,0.73980500000107,0.0201681136180557,0
11,1,146,200,20,45,-1.69533472070549,-1,0.994394400000601,0.0511936000002606,0.201810200000182,0.0201681136180557,0
51,1,147,1000,100,45,-1.69533472070549,1,0.460108200000832,0.0445207000011578,0.99970459999895,0.0201681136180557,1
6,1,148,100,10,45,-1.69533472070549,1,0.567319900001166,0.0512333000006038,0.101392900000064,0.0201681136180557,1
32,1,149,620,62,-45,-1.69533472070549,1,0.782181599999603,0.0508248999976786,0.622942000001785,0.0201681136180557,0
30,1,150,580,58,45,-1.69533472070549,1,0.515107600000192,0.0437440000023344,0.577131300000474,0.0201681136180557,1
28,1,151,540,54,-45,-1.69533472070549,-1,0.636584799998673,0.0421254676002718,0.536957532400265,0.0201681136180557,1
27,1,152,520,52,45,-1.69533472070549,-1,0.751828500000556,0.0497504000013578,0.526422300001286,0.0201681136180557,0
25,1,153,480,48,45,-1.69533472070549,1,0.459393599998293,0.0496843999972043,0.483107800002472,0.0201681136180557,1
1,2,154,0,0,45,-1.69533472070549,1,0.706275700002152,0.0440498999996635,0.00129809999998542,0.0201681136180557,1
2,2,155,20,2,-45,-1.69533472070549,-1,0.477690900002926,0.0478977999991912,0.0182058999998844,0.0201681136180557,1
25,2,156,480,48,-45,-1.69533472070549,-1,0.455431599999429,0.050025700002152,0.48646319999898,0.0201681136180557,1
38,2,157,740,74,-45,-1.69533472070549,-1,0.69357619999937,0.0498064999992494,0.744767600001069,0.0201681136180557,1
5,2,158,80,8,45,-1.69533472070549,1,0.647892200002389,0.0439116000015929,0.0762216000002809,0.0201681136180557,1
14,2,159,260,26,45,-1.69533472070549,1,0.50294269999722,0.0406201999976474,0.256433200000174,0.0201681136180557,1
26,2,160,500,50,-45,-1.69533472070549,-1,0.612303500001872,0.0440446000029624,0.495840499999758,0.0201681136180557,1
20,2,161,380,38,-45,-1.69533472070549,-1,0.433373900003062,0.049420100000134,0.380854999999428,0.0201681136180557,1
38,2,162,740,74,45,-1.69533472070549,-1,0.597914999998466,0.0415920999985246,0.736780700000963,0.0201681136180557,0
4,2,163,60,6,-45,-1.69533472070549,-1,0.727735700002086,0.0455698000005214,0.0585049999972398,0.0201681136180557,1
46,2,164,900,90,-45,-1.69533472070549,-1,0.594751500000712,0.0437751000026765,0.897244199997658,0.0201681136180557,1
36,2,165,700,70,-45,-1.69533472070549,-1,0.538519400000951,0.0442094000027282,0.696984999998676,0.0201681136180557,1
34,2,166,660,66,45,-1.69533472070549,1,0.613652700001694,0.0414985999996134,0.656721799998195,0.0201681136180557,1
46,2,167,900,90,45,-1.69533472070549,1,0.566498199998023,0.0404680999999982,0.89687590000176,0.0201681136180557,1
42,2,168,820,82,45,-1.69533472070549,1,0.505542000002606,0.0496343999984674,0.820609599999443,0.0201681136180557,1
12,2,169,220,22,-45,-1.69533472070549,1,0.568819700001768,0.0453194000001531,0.218015700000251,0.0201681136180557,0
34,2,170,660,66,45,-1.69533472070549,1,0.562640400003147,0.0440512999994098,0.657359900000301,0.0201681136180557,1
12,2,171,220,22,45,-1.69533472070549,-1,0.49421749999965,0.0512813000023016,0.222555100001046,0.0201681136180557,0
21,2,172,400,40,45,-1.69533472070549,1,1.0432452999994,0.0454556999975466,0.399404600000707,0.0201681136180557,1
27,2,173,520,52,45,-1.69533472070549,1,0.562005200001295,0.0407856999991054,0.51668140000038,0.0201681136180557,1
29,2,174,560,56,-45,-1.69533472070549,1,0.504253600000084,0.0496791999976267,0.565954699999565,0.0201681136180557,0
44,2,175,860,86,-45,-1.69533472070549,1,0.476059799999348,0.0428195999993477,0.857241500001692,0.0201681136180557,0
26,2,176,500,50,-45,-1.69533472070549,1,0.842951800001174,0.0486258874261694,0.500276999999187,0.0201681136180557,0
43,2,177,840,84,45,-1.69533472070549,1,0.532865900000616,0.0496272999989742,0.841496199998801,0.0201681136180557,1
15,2,178,280,28,-45,-1.69533472070549,1,0.559739900003478,0.042021909779578,0.277831390223582,0.0201681136180557,0
13,2,179,240,24,-45,-1.69533472070549,1,0.461104300000443,0.0497395000020333,0.241151999998692,0.0201681136180557,0
32,2,180,620,62,45,-1.69533472070549,1,0.458652900000743,0.0443182000017259,0.616886100000556,0.0201681136180557,1
37,2,181,720,72,-45,-1.69533472070549,1,1.1292160999983,0.0412477999998373,0.717191399999138,0.0201681136180557,0
31,2,182,600,60,45,-1.69533472070549,1,0.431412599999021,0.0439487999974517,0.596759800002474,0.0201681136180557,1
11,2,183,200,20,-45,-1.69533472070549,-1,0.462496600001032,0.0448490000017046,0.196693899997626,0.0201681136180557,1
43,2,184,840,84,-45,-1.69533472070549,1,0.544783500001358,0.0501652999992075,0.844946400000481,0.0201681136180557,0
4,2,185,60,6,-45,-1.69533472070549,-1,0.418397299999924,0.0399570999979915,0.0696171000017785,0.0201681136180557,1
14,2,186,260,26,45,-1.69533472070549,1,0.549050400000851,0.0420917999981612,0.256437800002459,0.0201681136180557,1
33,2,187,640,64,-45,-1.69533472070549,-1,0.377016399997956,0.0419197999981407,0.637017000000924,0.0201681136180557,1
30,2,188,580,58,45,-1.69533472070549,1,0.606725699999515,0.0451824999981909,0.579801700001553,0.0201681136180557,1
27,2,189,520,52,45,-1.69533472070549,1,0.545127099998354,0.0508928999988711,0.523914599998534,0.0201681136180557,1
15,2,190,280,28,45,-1.69533472070549,1,0.523403800001688,0.0447502999995777,0.279471800000465,0.0201681136180557,1
48,2,191,940,94,-45,-1.69533472070549,-1,0.5615942000004,0.0496875999997428,0.940933999998379,0.0201681136180557,1
19,2,192,360,36,45,-1.69533472070549,1,0.369410399998742,0.0497059000008448,0.364765800000896,0.0201681136180557,1
24,2,193,460,46,45,-1.69533472070549,1,0.446177499998157,0.0411770999999135,0.45660080000016,0.0201681136180557,1
23,2,194,440,44,-45,-1.69533472070549,-1,0.53122539999822,0.0501863000026788,0.442668100000446,0.0201681136180557,1
51,2,195,1000,100,45,-1.69533472070549,1,0.48778890000176,0.0482793000010133,0.999828799998795,0.0201681136180557,1
37,2,196,720,72,45,-1.69533472070549,1,0.519862700002705,0.0431322999975237,0.716578499999741,0.0201681136180557,1
16,2,197,300,30,45,-1.69533472070549,1,0.415014300000621,0.0402671000010741,0.296609899996838,0.0201681136180557,1
19,2,198,360,36,-45,-1.69533472070549,-1,0.655499399999826,0.0435711999998603,0.356782899998507,0.0201681136180557,1
22,2,199,420,42,45,-1.69533472070549,-1,0.557409500001086,0.0473634731861239,0.419056926813937,0.0201681136180557,0
50,2,200,980,98,45,-1.69533472070549,1,0.452729799999361,0.0495354000013322,0.985570099997858,0.0201681136180557,1
30,2,201,580,58,-45,-1.69533472070549,1,0.48460999999952,0.0512801000004401,0.583801400000084,0.0201681136180557,0
51,2,202,1000,100,45,-1.69533472070549,1,0.478836000002048,0.0434832999999344,0.996992000000319,0.0201681136180557,1
44,2,203,860,86,-45,-1.69533472070549,-1,0.499048600002425,0.0484178999977303,0.860244399998919,0.0201681136180557,1
25,2,204,480,48,45,-1.69533472070549,1,0.566463299997849,0.0446109000004071,0.47692349999852,0.0201681136180557,1
6,2,205,100,10,45,-1.69533472070549,1,0.467293699999573,0.0440197365933273,0.0966903634071059,0.0201681136180557,1
7,2,206,120,12,-45,-1.69533472070549,-1,0.817755700001726,0.041403100000025,0.116560400001617,0.0201681136180557,1
45,2,207,880,88,45,-1.69533472070549,1,0.663513300001796,0.0436392000010528,0.876973999998881,0.0201681136180557,1
23,2,208,440,44,-45,-1.69533472070549,-1,0.562560000002122,0.0508459000011499,0.442290799997863,0.0201681136180557,1
39,2,209,760,76,45,-1.69533472070549,1,0.478987499998766,0.0428094000017154,0.757891899997048,0.0201681136180557,1
48,2,210,940,94,45,-1.69533472070549,-1,0.983335699998861,0.0449092999988352,0.93969769999967,0.0201681136180557,0
1,2,211,0,0,-45,-1.69533472070549,-1,4.46930710000015,0.0507464000002074,0.00764559999879566,0.0201681136180557,1
18,2,212,340,34,-45,-1.69533472070549,-1,0.486761600001046,0.051014299999224,0.341816000000108,0.0201681136180557,1
14,2,213,260,26,45,-1.69533472070549,1,0.613581000001432,0.041922299998987,0.256399699999747,0.0201681136180557,1
24,2,214,460,46,45,-1.69533472070549,-1,0.443439900001977,0.043727595537348,0.45687580446247,0.0201681136180557,0
47,2,215,920,92,-45,-1.69533472070549,-1,0.70612329999858,0.040787599999021,0.91703790000247,0.0201681136180557,1
2,2,216,20,2,-45,-1.69533472070549,-1,0.659034299998893,0.0399847000007867,0.0369380999982241,0.0201681136180557,1
32,2,217,620,62,45,-1.69533472070549,1,0.595504000000801,0.0485780000017257,0.619782099998702,0.0201681136180557,1
20,2,218,380,38,-45,-1.69533472070549,-1,0.71301620000304,0.0455129000001762,0.377729399999225,0.0201681136180557,1
23,2,219,440,44,-45,-1.69533472070549,-1,0.428761800001666,0.045174599999882,0.438255000000936,0.0201681136180557,1
2,2,220,20,2,45,-1.69533472070549,1,0.669977400000789,0.0499506999985897,0.0318649000000732,0.0201681136180557,1
17,2,221,320,32,45,-1.69533472070549,-1,0.433043399996677,0.0481041999992158,0.319071500001883,0.0201681136180557,0
20,2,222,380,38,45,-1.69533472070549,1,0.511409599999752,0.0499348986049881,0.382437199998094,0.0201681136180557,1
40,2,223,780,78,45,-1.69533472070549,1,0.641662499998347,0.0492584000021452,0.780537299997377,0.0201681136180557,1
28,2,224,540,54,-45,-1.69533472070549,-1,0.469626600002812,0.0400854999970761,0.546755000003031,0.0201681136180557,1
51,2,225,1000,100,-45,-1.69533472070549,-1,0.617879600002198,0.0453568463708507,1.00030765362681,0.0201681136180557,1
17,2,226,320,32,-45,-1.69533472070549,-1,0.570681500001228,0.0411300000014307,0.316378599996824,0.0201681136180557,1
6,2,227,100,10,45,-1.69533472070549,-1,0.552665699997306,0.0499242000005324,0.101054099999601,0.0201681136180557,0
9,2,228,160,16,45,-1.69533472070549,-1,0.730721500000072,0.0501572000030137,0.162744299999758,0.0201681136180557,0
12,2,229,220,22,-45,-1.69533472070549,1,0.599875799998699,0.0449139999982435,0.219464800000424,0.0201681136180557,0
13,2,230,240,24,45,-1.69533472070549,-1,1.51397109999743,0.0504707999971288,0.241463100002875,0.0201681136180557,0
18,2,231,340,34,45,-1.69533472070549,1,0.694197699998767,0.0494973999993817,0.344739299998764,0.0201681136180557,1
38,2,232,740,74,45,-1.69533472070549,1,0.528356900002109,0.0452977000022656,0.738450000000739,0.0201681136180557,1
35,2,233,680,68,-45,-1.69533472070549,-1,0.398019700001896,0.0512393648023135,0.686330399999861,0.0201681136180557,1
35,2,234,680,68,45,-1.69533472070549,1,0.625999899999442,0.0499840000011318,0.683681800001068,0.0201681136180557,1
9,2,235,160,16,-45,-1.69533472070549,-1,0.546372200002224,0.0452673675972619,0.159908432404336,0.0201681136180557,1
8,2,236,140,14,45,-1.69533472070549,1,0.525753999998415,0.0418663999989803,0.136379899999156,0.0201681136180557,1
13,2,237,240,24,45,-1.69533472070549,1,0.584415299999819,0.0429111999983434,0.23654549999992,0.0201681136180557,1
44,2,238,860,86,45,-1.69533472070549,1,0.578022599998803,0.0490367000020342,0.860989899996639,0.0201681136180557,1
37,2,239,720,72,45,-1.69533472070549,-1,0.470813799998723,0.0445232000020042,0.716847700001381,0.0201681136180557,0
40,2,240,780,78,-45,-1.69533472070549,-1,0.447370400001091,0.0494178000008105,0.783364700000675,0.0201681136180557,1
22,2,241,420,42,-45,-1.69533472070549,-1,0.436703399998805,0.0511533999997482,0.42404549999992,0.0201681136180557,1
8,2,242,140,14,45,-1.69533472070549,1,0.526688000001741,0.0409072000002197,0.136077200000727,0.0201681136180557,1
9,2,243,160,16,-45,-1.69533472070549,1,0.442561399999249,0.0408959000014875,0.156728699999803,0.0201681136180557,0
45,2,244,880,88,-45,-1.69533472070549,-1,0.47254729999986,0.0423010675986006,0.877214532400103,0.0201681136180557,1
45,2,245,880,88,45,-1.69533472070549,-1,0.694517299998552,0.0508354999983567,0.886416699999245,0.0201681136180557,0
21,2,246,400,40,-45,-1.69533472070549,-1,0.598432499999035,0.0445618999983708,0.396670099999028,0.0201681136180557,1
16,2,247,300,30,45,-1.69533472070549,1,0.733747400001448,0.0415931999996246,0.296848900001351,0.0201681136180557,1
41,2,248,800,80,-45,-1.69533472070549,1,0.588552799999889,0.0498257999970519,0.801742400002695,0.0201681136180557,0
28,2,249,540,54,-45,-1.69533472070549,-1,0.621883899999375,0.0496101999997336,0.544030600001861,0.0201681136180557,1
41,2,250,800,80,45,-1.69533472070549,1,0.550057299999025,0.0436785999991116,0.798442100000102,0.0201681136180557,1
43,2,251,840,84,-45,-1.69533472070549,-1,0.456014499999583,0.047754299997905,0.839819000000716,0.0201681136180557,1
7,2,252,120,12,-45,-1.69533472070549,-1,0.642417300001398,0.0411129000021901,0.116418099998555,0.0201681136180557,1
31,2,253,600,60,45,-1.69533472070549,1,0.528138900001068,0.0423601000002236,0.597081299998536,0.0201681136180557,1
28,2,254,540,54,-45,-1.69533472070549,1,0.554757300000347,0.0430684986022243,0.538031399999454,0.0201681136180557,0
33,2,255,640,64,-45,-1.69533472070549,-1,0.397130599998491,0.0495320000009087,0.640864699998929,0.0201681136180557,1
3,2,256,40,4,-45,-1.69533472070549,-1,0.955401299997902,0.046973300002719,0.0377188999991631,0.0201681136180557,1
5,2,257,80,8,-45,-1.69533472070549,-1,0.874950699999317,0.0504400999998325,0.0823920000002545,0.0201681136180557,1
10,2,258,180,18,-45,-1.69533472070549,1,0.47118159999809,0.0407759000008809,0.176322400002391,0.0201681136180557,0
47,2,259,920,92,45,-1.69533472070549,1,0.539397500000632,0.0453098338002746,0.919150766199891,0.0201681136180557,1
42,2,260,820,82,-45,-1.69533472070549,1,0.820955399998638,0.0423496999974304,0.816845000001194,0.0201681136180557,0
11,2,261,200,20,-45,-1.69533472070549,-1,0.525354099998367,0.0434857000000193,0.198807100001432,0.0201681136180557,1
3,2,262,40,4,-45,-1.69533472070549,1,0.687061600001471,0.0398496999987401,0.0573852999987139,0.0201681136180557,0
4,2,263,60,6,45,-1.69533472070549,1,0.605134000001271,0.0511046999999962,0.079200200001651,0.0201681136180557,1
8,2,264,140,14,45,-1.69533472070549,1,0.50953699999809,0.0506098000005295,0.143860799998947,0.0201681136180557,1
49,2,265,960,96,-45,-1.69533472070549,-1,0.505941700001131,0.0410405000002356,0.957046399998944,0.0201681136180557,1
22,2,266,420,42,45,-1.69533472070549,-1,0.490311900000961,0.0492964999975811,0.420387500002107,0.0201681136180557,0
31,2,267,600,60,-45,-1.69533472070549,1,0.736171500000637,0.049400500000047,0.606238500000472,0.0201681136180557,0
11,2,268,200,20,-45,-1.69533472070549,-1,0.465182700001606,0.0493811999986065,0.205014400002256,0.0201681136180557,1
50,2,269,980,98,45,-1.69533472070549,1,0.547302399998443,0.0500002000007953,0.986503300002369,0.0201681136180557,1
27,2,270,520,52,-45,-1.69533472070549,1,0.496744500000204,0.04257460000008,0.516669999997248,0.0201681136180557,0
41,2,271,800,80,-45,-1.69533472070549,-1,0.527094699998997,0.0483180000010179,0.800550399999338,0.0201681136180557,1
36,2,272,700,70,45,-1.69533472070549,1,0.526614899998094,0.040407000000414,0.696715199999744,0.0201681136180557,1
32,2,273,620,62,45,-1.69533472070549,1,0.379768499999045,0.0434690000001865,0.616726799999014,0.0201681136180557,1
6,2,274,100,10,45,-1.69533472070549,1,0.492596399999456,0.0400238000001991,0.107581500000379,0.0201681136180557,1
33,2,275,640,64,45,-1.69533472070549,1,0.406638700002077,0.0509591000009095,0.646438499999931,0.0201681136180557,1
29,2,276,560,56,-45,-1.69533472070549,1,0.447307900001761,0.0474673999997322,0.561078399998223,0.0201681136180557,0
34,2,277,660,66,45,-1.69533472070549,1,0.48583950000102,0.0414209999980812,0.656646899999032,0.0201681136180557,1
40,2,278,780,78,-45,-1.69533472070549,1,0.395657199998823,0.0433835000003455,0.776961200001097,0.0201681136180557,0
7,2,279,120,12,45,-1.69533472070549,1,0.977139399998123,0.0496405999983835,0.125593799999479,0.0201681136180557,1
42,2,280,820,82,-45,-1.69533472070549,-1,0.533412100001442,0.0414353999985906,0.816910599998664,0.0201681136180557,1
15,2,281,280,28,45,-1.69533472070549,1,0.80098750000252,0.0423231999993732,0.276382700001705,0.0201681136180557,1
46,2,282,900,90,-45,-1.69533472070549,-1,0.367136099997879,0.0449649000001955,0.899798300000839,0.0201681136180557,1
16,2,283,300,30,-45,-1.69533472070549,-1,0.512552699998196,0.0496867000001657,0.301798700002109,0.0201681136180557,1
39,2,284,760,76,-45,-1.69533472070549,-1,0.609876000002259,0.041337200000271,0.756912500000908,0.0201681136180557,1
18,2,285,340,34,-45,-1.69533472070549,-1,0.531829399998969,0.0437249999995402,0.336727900001279,0.0201681136180557,1
49,2,286,960,96,-45,-1.69533472070549,-1,0.635717099998146,0.0494944999991276,0.962864900000568,0.0201681136180557,1
10,2,287,180,18,45,-1.69533472070549,1,0.566179700002976,0.0412082000002556,0.176565699999628,0.0201681136180557,1
3,2,288,40,4,45,-1.69533472070549,1,0.496882499999629,0.0400092999989283,0.0553457000023627,0.0201681136180557,1
26,2,289,500,50,-45,-1.69533472070549,-1,0.446824400001788,0.0450467000009667,0.499668199998268,0.0201681136180557,1
5,2,290,80,8,45,-1.69533472070549,-1,0.499672699999792,0.0400043000008736,0.0996591000002809,0.0201681136180557,0
36,2,291,700,70,-45,-1.69533472070549,-1,0.509357999999338,0.0505195759797061,0.703461524022714,0.0201681136180557,1
24,2,292,460,46,-45,-1.69533472070549,-1,0.457466399999248,0.044916099999682,0.457316899999569,0.0201681136180557,1
35,2,293,680,68,-45,-1.69533472070549,-1,0.417849499997828,0.0409921999998915,0.676702900000237,0.0201681136180557,1
21,2,294,400,40,-45,-1.69533472070549,-1,0.441644999998971,0.0415880999971705,0.396663600000466,0.0201681136180557,1
48,2,295,940,94,-45,-1.69533472070549,-1,0.508501299998898,0.041742699999304,0.937038100000791,0.0201681136180557,1
19,2,296,360,36,-45,-1.69533472070549,-1,0.470177100000001,0.0492126999997708,0.360367599998426,0.0201681136180557,1
30,2,297,580,58,-45,-1.69533472070549,-1,0.548262100001011,0.0425988999995752,0.576701999998477,0.0201681136180557,1
25,2,298,480,48,-45,-1.69533472070549,-1,0.442821000000549,0.0404572000006738,0.476598500001273,0.0201681136180557,1
10,2,299,180,18,-45,-1.69533472070549,-1,0.415197299997089,0.04536939999889,0.179425000002084,0.0201681136180557,1
47,2,300,920,92,-45,-1.69533472070549,-1,0.480458400001226,0.0512597620072484,0.924074700000347,0.0201681136180557,1
1,2,301,0,0,45,-1.69533472070549,-1,0.650270800000726,0.0400313999998616,0.0137250000007043,0.0201681136180557,0
49,2,302,960,96,45,-1.69533472070549,-1,0.506332299999485,0.0407818999992742,0.956937800001469,0.0201681136180557,0
39,2,303,760,76,-45,-1.69533472070549,-1,0.416851400001178,0.0425114999998186,0.756765500002075,0.0201681136180557,1
50,2,304,980,98,-45,-1.69533472070549,-1,0.524920899999415,0.0469338000002608,0.979679199997918,0.0201681136180557,1
17,2,305,320,32,45,-1.69533472070549,1,0.898732699999528,0.0452283999984502,0.319985900001484,0.0201681136180557,1
29,2,306,560,56,45,-1.69533472070549,1,0.41259540000101,0.0494662999990396,0.561862899998232,0.0201681136180557,1
44,3,307,860,86,45,-1.69533472070549,1,0.660420699998213,0.0401505606132559,0.866971999999805,0.0201681136180557,1
35,3,308,680,68,-45,-1.69533472070549,-1,0.369291900002281,0.0495025000018359,0.684761999997136,0.0201681136180557,1
20,3,309,380,38,45,-1.69533472070549,1,0.486693599999853,0.0458029000001261,0.379688299999543,0.0201681136180557,1
6,3,310,100,10,-45,-1.69533472070549,-1,0.548736699998699,0.0512022000002617,0.104339000001346,0.0201681136180557,1
30,3,311,580,58,45,-1.69533472070549,1,0.418462399997225,0.0445232999991276,0.576924699998926,0.0201681136180557,1
46,3,312,900,90,-45,-1.69533472070549,-1,0.437686100001883,0.0415018999992753,0.896842200003448,0.0201681136180557,1
9,3,313,160,16,45,-1.69533472070549,1,0.490685499997198,0.0403191000004881,0.156333200000518,0.0201681136180557,1
15,3,314,280,28,-45,-1.69533472070549,-1,0.451437900002929,0.0494718000009016,0.283098500000051,0.0201681136180557,1
36,3,315,700,70,-45,-1.69533472070549,-1,0.575174300000072,0.0503964999988966,0.702855200001068,0.0201681136180557,1
22,3,316,420,42,45,-1.69533472070549,1,0.538109000000986,0.0493188000000373,0.420443499999237,0.0201681136180557,1
8,3,317,140,14,-45,-1.69533472070549,-1,0.464109100001224,0.0499030999999377,0.141398200001277,0.0201681136180557,1
38,3,318,740,74,-45,-1.69533472070549,1,0.404127000001608,0.0508999999983644,0.745141900002636,0.0201681136180557,0
31,3,319,600,60,-45,-1.69533472070549,1,0.607900700000755,0.0417404999971041,0.598101600000518,0.0201681136180557,0
14,3,320,260,26,-45,-1.69533472070549,1,0.400515699999232,0.0452789999981178,0.2578190000022,0.0201681136180557,0
34,3,321,660,66,45,-1.69533472070549,1,0.565714299998945,0.0414770999996108,0.65677499999947,0.0201681136180557,1
37,3,322,720,72,-45,-1.69533472070549,-1,1.57467069999984,0.0442115000005288,0.71680539999943,0.0201681136180557,1
27,3,323,520,52,45,-1.69533472070549,1,0.56337540000095,0.0508594999992056,0.52179790000082,0.0201681136180557,1
50,3,324,980,98,45,-1.69533472070549,-1,0.80670530000134,0.0404688999988139,0.976955999998609,0.0201681136180557,0
10,3,325,180,18,-45,-1.69533472070549,1,0.42699409999841,0.0489782000004197,0.180328399997961,0.0201681136180557,0
1,3,326,0,0,45,-1.69533472070549,-1,0.6782037999983,0.0404563000010967,0.00120790000073612,0.0201681136180557,0
12,3,327,220,22,45,-1.69533472070549,1,0.439346699997259,0.0467466592162964,0.217667100001563,0.0201681136180557,1
33,3,328,640,64,45,-1.69533472070549,-1,0.95059559999936,0.0442913999977463,0.636784199999965,0.0201681136180557,0
46,3,329,900,90,45,-1.69533472070549,1,0.501982800000405,0.0510371999989729,0.902270400001726,0.0201681136180557,1
25,3,330,480,48,45,-1.69533472070549,1,0.346617499999411,0.0495420999977796,0.483362900002248,0.0201681136180557,1
45,3,331,880,88,-45,-1.69533472070549,1,0.378840299999865,0.0511184000024514,0.882302699999855,0.0201681136180557,0
12,3,332,220,22,-45,-1.69533472070549,-1,0.447214199997688,0.0503844000013487,0.222577000000456,0.0201681136180557,1
39,3,333,760,76,-45,-1.69533472070549,-1,0.466457800001081,0.0403232999997272,0.756837900000392,0.0201681136180557,1
50,3,334,980,98,-45,-1.69533472070549,-1,0.4155471999984,0.0452933999986271,0.978799799999251,0.0201681136180557,1
25,3,335,480,48,-45,-1.69533472070549,-1,0.345620200001576,0.0411678000018583,0.477441399998497,0.0201681136180557,1
13,3,336,240,24,45,-1.69533472070549,1,0.517990000000282,0.0435704000010446,0.238216800000373,0.0201681136180557,1
30,3,337,580,58,-45,-1.69533472070549,-1,0.500338800000463,0.0504328000024543,0.584860399998433,0.0201681136180557,1
23,3,338,440,44,45,-1.69533472070549,1,0.557657200002723,0.0447697351955867,0.437854564803274,0.0201681136180557,1
39,3,339,760,76,-45,-1.69533472070549,-1,0.956041199999163,0.0458423000018229,0.758077099999355,0.0201681136180557,1
41,3,340,800,80,45,-1.69533472070549,-1,0.537197800000285,0.0415520000024117,0.797119299997576,0.0201681136180557,0
21,3,341,400,40,45,-1.69533472070549,-1,0.663494399999763,0.0438575000007404,0.396786499997688,0.0201681136180557,0
26,3,342,500,50,45,-1.69533472070549,-1,0.667325899998104,0.0485832999984268,0.500311700001475,0.0201681136180557,0
48,3,343,940,94,45,-1.69533472070549,1,0.573594000001322,0.0497083999980532,0.944548600000417,0.0201681136180557,1
33,3,344,640,64,-45,-1.69533472070549,-1,0.574663899998995,0.0486522999999579,0.640445199998794,0.0201681136180557,1
23,3,345,440,44,-45,-1.69533472070549,1,0.508532899999409,0.0461870999970415,0.436929200001032,0.0201681136180557,0
42,3,346,820,82,-45,-1.69533472070549,1,0.636857099998451,0.0474204999991343,0.81933040000149,0.0201681136180557,0
45,3,347,880,88,-45,-1.69533472070549,-1,0.553056599997944,0.0421109999988403,0.876920099999552,0.0201681136180557,1
1,3,348,0,0,-45,-1.69533472070549,-1,0.500113299996883,0.0410683000009158,0.0187773999969068,0.0201681136180557,1
4,3,349,60,6,-45,-1.69533472070549,-1,0.467465099998662,0.039963400002307,0.0686519000009866,0.0201681136180557,1
37,3,350,720,72,45,-1.69533472070549,1,0.721180500000628,0.047769500000868,0.718913900000189,0.0201681136180557,1
49,3,351,960,96,-45,-1.69533472070549,-1,0.377859500000341,0.0407784000017273,0.957004399999278,0.0201681136180557,1
8,3,352,140,14,45,-1.69533472070549,-1,0.337381800000003,0.0496586999979627,0.141193500003283,0.0201681136180557,0
48,3,353,940,94,-45,-1.69533472070549,-1,0.509716100001242,0.0501488999980211,0.943795700000919,0.0201681136180557,1
45,3,354,880,88,-45,-1.69533472070549,-1,0.354304800002865,0.0456414000000223,0.879928500002279,0.0201681136180557,1
48,3,355,940,94,45,-1.69533472070549,1,0.516553000001295,0.0478455000011309,0.939549099999567,0.0201681136180557,1
38,3,356,740,74,45,-1.69533472070549,1,0.451528100002179,0.0506612999997742,0.745652699999482,0.0201681136180557,1
25,3,357,480,48,-45,-1.69533472070549,1,0.435614899997745,0.0450268999993568,0.479006300000037,0.0201681136180557,0
19,3,358,360,36,-45,-1.69533472070549,-1,0.433205599998473,0.0422440000002098,0.356491700000333,0.0201681136180557,1
47,3,359,920,92,45,-1.69533472070549,1,0.464196099997935,0.0503060000010009,0.925339699999313,0.0201681136180557,1
35,3,360,680,68,45,-1.69533472070549,1,1.28255369999897,0.0413227999997616,0.676137599999493,0.0201681136180557,1
18,3,361,340,34,-45,-1.69533472070549,-1,0.479088699998101,0.0459975310041045,0.338763200001267,0.0201681136180557,1
27,3,362,520,52,45,-1.69533472070549,1,0.426545199999964,0.046962500000518,0.51847909999924,0.0201681136180557,1
10,3,363,180,18,-45,-1.69533472070549,-1,0.532379500000388,0.0429746999980125,0.176720200001,0.0201681136180557,1
23,3,364,440,44,-45,-1.69533472070549,-1,0.571376200001396,0.0454428000011831,0.439095500001713,0.0201681136180557,1
11,3,365,200,20,45,-1.69533472070549,1,0.594277299998794,0.0412753000018711,0.196470399998361,0.0201681136180557,1
17,3,366,320,32,45,-1.69533472070549,1,0.457766100000299,0.0413684000013745,0.316541299998789,0.0201681136180557,1
1,3,367,0,0,45,-1.69533472070549,1,0.712498000000778,0.0500930000016524,0.021572699999524,0.0201681136180557,1
26,3,368,500,50,45,-1.69533472070549,1,0.643114700000297,0.0429321000010532,0.49788080000144,0.0201681136180557,1
2,3,369,20,2,-45,-1.69533472070549,-1,0.479723499996908,0.0400191000007908,0.0403717000008328,0.0201681136180557,1
42,3,370,820,82,-45,-1.69533472070549,-1,0.497557899998355,0.0440039999994042,0.817842699998437,0.0201681136180557,1
3,3,371,40,4,-45,-1.69533472070549,-1,0.493244600002072,0.0400066000001971,0.058950200000254,0.0201681136180557,1
3,3,372,40,4,45,-1.69533472070549,-1,0.5922642000005,0.0500761000002967,0.0452834999996412,0.0201681136180557,0
24,3,373,460,46,45,-1.69533472070549,1,0.39209209999899,0.0453551731879998,0.457939926811378,0.0201681136180557,1
15,3,374,280,28,45,-1.69533472070549,1,0.386244700002862,0.0406726999972307,0.276919900003122,0.0201681136180557,1
27,3,375,520,52,45,-1.69533472070549,1,0.476122600000963,0.0461905000011029,0.517686099999992,0.0201681136180557,1
51,3,376,1000,100,45,-1.69533472070549,1,0.465676300002087,0.0407938999996986,0.997080599998299,0.0201681136180557,1
4,3,377,60,6,-45,-1.69533472070549,-1,1.03897900000084,0.0507305999999517,0.0786034000011568,0.0201681136180557,1
16,3,378,300,30,45,-1.69533472070549,1,0.486961800001154,0.045344499998464,0.299635999999737,0.0201681136180557,1
41,3,379,800,80,-45,-1.69533472070549,-1,0.43055269999968,0.0491288000011991,0.800289399998292,0.0201681136180557,1
19,3,380,360,36,-45,-1.69533472070549,-1,0.911126200000581,0.043800999999803,0.356684099999256,0.0201681136180557,1
49,3,381,960,96,45,-1.69533472070549,1,0.541675200001919,0.0493318000008003,0.961224300001049,0.0201681136180557,1
49,3,382,960,96,-45,-1.69533472070549,-1,0.630194199999096,0.043870199999219,0.95725179999863,0.0201681136180557,1
41,3,383,800,80,-45,-1.69533472070549,-1,0.488053899996885,0.0494875999975193,0.806351500003075,0.0201681136180557,1
22,3,384,420,42,45,-1.69533472070549,1,0.598850799997308,0.0405541999971319,0.41674630000125,0.0201681136180557,1
34,3,385,660,66,45,-1.69533472070549,1,0.478719900002034,0.0467451000004075,0.65853799999968,0.0201681136180557,1
2,3,386,20,2,45,-1.69533472070549,1,0.523609799998667,0.0399503000007826,0.0287229000023217,0.0201681136180557,1
16,3,387,300,30,45,-1.69533472070549,1,0.482677700001659,0.0486410000012256,0.300399100000504,0.0201681136180557,1
19,3,388,360,36,-45,-1.69533472070549,1,0.546542700001737,0.0410420999978669,0.35666250000213,0.0201681136180557,0
47,3,389,920,92,-45,-1.69533472070549,1,0.433523799998511,0.0414392999991833,0.916990400000941,0.0201681136180557,0
36,3,390,700,70,-45,-1.69533472070549,-1,0.456602599999314,0.0449817000007897,0.698368699999264,0.0201681136180557,1
28,3,391,540,54,45,-1.69533472070549,-1,0.341074599997228,0.0476639944099588,0.53925110000273,0.0201681136180557,0
17,3,392,320,32,45,-1.69533472070549,1,0.675630800000363,0.0461383999972895,0.318112799999653,0.0201681136180557,1
40,3,393,780,78,-45,-1.69533472070549,-1,0.511409700000513,0.0505668000005244,0.781830799998716,0.0201681136180557,1
6,3,394,100,10,45,-1.69533472070549,1,0.502592199998617,0.0500102999976662,0.119406800000434,0.0201681136180557,1
13,3,395,240,24,-45,-1.69533472070549,-1,0.473559099998965,0.051224299997557,0.243129300000874,0.0201681136180557,1
43,3,396,840,84,-45,-1.69533472070549,1,0.463892499999929,0.0429744999964896,0.837059600002249,0.0201681136180557,0
3,3,397,40,4,-45,-1.69533472070549,-1,0.524382700001297,0.0445992999993905,0.0387554999979329,0.0201681136180557,1
17,3,398,320,32,45,-1.69533472070549,1,0.471153900001809,0.0443099999974947,0.316908500000864,0.0201681136180557,1
5,3,399,80,8,-45,-1.69533472070549,-1,0.452423500002624,0.0400955999975849,0.0996752000028209,0.0201681136180557,1
43,3,400,840,84,45,-1.69533472070549,1,0.697717700000794,0.0470229000020481,0.838919599998917,0.0201681136180557,1
21,3,401,400,40,-45,-1.69533472070549,-1,0.441390600000886,0.0506523999974888,0.404203199999756,0.0201681136180557,1
28,3,402,540,54,45,-1.69533472070549,1,0.539310600001045,0.0439354000009189,0.5368011999999,0.0201681136180557,1
18,3,403,340,34,-45,-1.69533472070549,-1,0.451203100001294,0.0513809000003675,0.345365600001969,0.0201681136180557,1
39,3,404,760,76,45,-1.69533472070549,1,0.48587320000297,0.0492419000001973,0.760667200000171,0.0201681136180557,1
6,3,405,100,10,-45,-1.69533472070549,-1,0.48473229999945,0.0506382999992638,0.104794700000639,0.0201681136180557,1
28,3,406,540,54,45,-1.69533472070549,1,0.576967600001808,0.0499631000020599,0.541093699997873,0.0201681136180557,1
12,3,407,220,22,45,-1.69533472070549,-1,0.445828800002346,0.0414664000018092,0.216575399997964,0.0201681136180557,0
5,3,408,80,8,-45,-1.69533472070549,-1,0.493005599997559,0.0505471999967995,0.0807179000003089,0.0201681136180557,1
11,3,409,200,20,-45,-1.69533472070549,-1,0.37091270000019,0.0509076999987883,0.201838799999678,0.0201681136180557,1
20,3,410,380,38,45,-1.69533472070549,1,0.605525899998611,0.0498082000012801,0.384800899999391,0.0201681136180557,1
18,3,411,340,34,45,-1.69533472070549,1,0.687267199999042,0.0452598999982001,0.339396999999735,0.0201681136180557,1
15,3,412,280,28,-45,-1.69533472070549,-1,0.482351999999082,0.0409010999974271,0.276672700001654,0.0201681136180557,1
26,3,413,500,50,-45,-1.69533472070549,-1,0.659132599997974,0.0508335000013176,0.505977299999358,0.0201681136180557,1
32,3,414,620,62,45,-1.69533472070549,1,0.506267600001593,0.0438959041930502,0.618005795808131,0.0201681136180557,1
9,3,415,160,16,45,-1.69533472070549,-1,0.450864399997954,0.0457213999980013,0.159410000000207,0.0201681136180557,0
7,3,416,120,12,45,-1.69533472070549,1,0.532989799998177,0.0497185999993235,0.121458500001609,0.0201681136180557,1
14,3,417,260,26,45,-1.69533472070549,1,0.499822599998879,0.0495197000018379,0.266222700000071,0.0201681136180557,1
38,3,418,740,74,-45,-1.69533472070549,1,0.553978899999493,0.0492730999976629,0.740716000000248,0.0201681136180557,0
35,3,419,680,68,-45,-1.69533472070549,1,0.427880699997331,0.0448312000007718,0.679540699999052,0.0201681136180557,0
8,3,420,140,14,45,-1.69533472070549,1,0.433435799997824,0.0497394999983953,0.140579800001433,0.0201681136180557,1
44,3,421,860,86,-45,-1.69533472070549,-1,0.473754800001188,0.0443965000013122,0.85813529999723,0.0201681136180557,1
29,3,422,560,56,45,-1.69533472070549,-1,0.280187100001058,0.0428413999979966,0.556840200002625,0.0201681136180557,0
51,3,423,1000,100,45,-1.69533472070549,1,0.400718099997903,0.051240400000097,1.00376120000146,0.0201681136180557,1
29,3,424,560,56,-45,-1.69533472070549,-1,0.515827299997909,0.0449005000009493,0.558945699998731,0.0201681136180557,1
44,3,425,860,86,45,-1.69533472070549,-1,0.430093399998441,0.0409029000002192,0.856997699997009,0.0201681136180557,0
11,3,426,200,20,45,-1.69533472070549,1,0.497349099998246,0.0497105999966152,0.204606000002968,0.0201681136180557,1
7,3,427,120,12,45,-1.69533472070549,1,0.504940899998473,0.0479932999987795,0.119188299999223,0.0201681136180557,1
7,3,428,120,12,-45,-1.69533472070549,-1,0.539915399996971,0.044856799999252,0.119372299999668,0.0201681136180557,1
30,3,429,580,58,45,-1.69533472070549,1,0.427659699998912,0.0485072000010405,0.579911599998013,0.0201681136180557,1
29,3,430,560,56,-45,-1.69533472070549,-1,0.489216300000408,0.0498176000000967,0.564614599999913,0.0201681136180557,1
10,3,431,180,18,45,-1.69533472070549,1,0.453732099998888,0.0417914999998175,0.176432000000204,0.0201681136180557,1
31,3,432,600,60,-45,-1.69533472070549,-1,0.528943599998456,0.0420371000000159,0.596913800000038,0.0201681136180557,1
21,3,433,400,40,45,-1.69533472070549,1,0.354803199999878,0.046551499999623,0.398357199999737,0.0201681136180557,1
40,3,434,780,78,45,-1.69533472070549,1,0.558872800000245,0.0406769000001077,0.776800100000401,0.0201681136180557,1
9,3,435,160,16,45,-1.69533472070549,1,0.423614200000884,0.0438380999985384,0.156417999998666,0.0201681136180557,1
32,3,436,620,62,-45,-1.69533472070549,-1,0.489767899998697,0.0432207999983802,0.61914120000074,0.0201681136180557,1
51,3,437,1000,100,-45,-1.69533472070549,-1,0.321073400002206,0.0416603000012401,0.997132499996951,0.0201681136180557,1
36,3,438,700,70,-45,-1.69533472070549,-1,0.460977099999582,0.0419392000003427,0.696920000002137,0.0201681136180557,1
5,3,439,80,8,-45,-1.69533472070549,1,0.475633100002597,0.0502331999996386,0.082072999997763,0.0201681136180557,0
14,3,440,260,26,-45,-1.69533472070549,-1,0.312230800001998,0.0495996999998169,0.261861700000736,0.0201681136180557,1
37,3,441,720,72,45,-1.69533472070549,-1,0.326065000001108,0.0430933999996341,0.718726399998559,0.0201681136180557,0
31,3,442,600,60,-45,-1.69533472070549,-1,0.74601420000181,0.0470792000014626,0.59897490000003,0.0201681136180557,1
33,3,443,640,64,-45,-1.69533472070549,-1,0.456129400001373,0.0497528999985661,0.645887900001981,0.0201681136180557,1
42,3,444,820,82,45,-1.69533472070549,-1,0.676713099997869,0.0422256000019843,0.816995999997744,0.0201681136180557,0
24,3,445,460,46,-45,-1.69533472070549,-1,0.509554899999785,0.0412220999969577,0.457108300000982,0.0201681136180557,1
13,3,446,240,24,45,-1.69533472070549,1,0.473063299999922,0.0501690000019153,0.244669599996996,0.0201681136180557,1
2,3,447,20,2,-45,-1.69533472070549,-1,0.466669999997976,0.0400422000020626,0.0375084999977844,0.0201681136180557,1
16,3,448,300,30,45,-1.69533472070549,1,0.460231299999577,0.0496333226219576,0.305585900001461,0.0201681136180557,1
34,3,449,660,66,-45,-1.69533472070549,-1,0.419341500000883,0.043854100000317,0.656814500001929,0.0201681136180557,1
32,3,450,620,62,-45,-1.69533472070549,-1,0.43048170000111,0.0500315999997838,0.62336630000209,0.0201681136180557,1
20,3,451,380,38,-45,-1.69533472070549,-1,0.347847100001673,0.0502344999986235,0.386202100002265,0.0201681136180557,1
24,3,452,460,46,45,-1.69533472070549,-1,0.3483942999992,0.0423858000031032,0.457032199999958,0.0201681136180557,0
50,3,453,980,98,45,-1.69533472070549,1,0.5021330999989,0.040997600000992,0.977223899997625,0.0201681136180557,1
46,3,454,900,90,45,-1.69533472070549,1,0.563701600000059,0.0435343999997713,0.897059300001274,0.0201681136180557,1
47,3,455,920,92,-45,-1.69533472070549,-1,0.577423499998986,0.0412206000000879,0.91701920000196,0.0201681136180557,1
40,3,456,780,78,45,-1.69533472070549,1,0.494516299997485,0.0494766999981948,0.783728500002326,0.0201681136180557,1
4,3,457,60,6,-45,-1.69533472070549,-1,0.543519800001377,0.0405144999967888,0.0559865000032005,0.0201681136180557,1
43,3,458,840,84,-45,-1.69533472070549,-1,0.986824600000546,0.0454768000017793,0.839719699997659,0.0201681136180557,1
22,3,459,420,42,-45,-1.69533472070549,-1,0.530586600001698,0.0439884999977949,0.417428900000232,0.0201681136180557,1
44,4,460,860,86,45,-1.69533472070549,1,0.430461399999331,0.0404470703942934,0.857033829604916,0.0201681136180557,1
2,4,461,20,2,-45,-1.69533472070549,-1,0.42293140000038,0.0497232000016083,0.0232694000005722,0.0201681136180557,1
17,4,462,320,32,45,-1.69533472070549,1,0.76083319999816,0.0493177999996988,0.32557960000122,0.0201681136180557,1
8,4,463,140,14,45,-1.69533472070549,1,0.602332200000092,0.0443712000014784,0.137262299998838,0.0201681136180557,1
37,4,464,720,72,45,-1.69533472070549,1,0.475220399999671,0.0495407662019716,0.722879400000238,0.0201681136180557,1
7,4,465,120,12,-45,-1.69533472070549,-1,0.432877799998096,0.0426984999976412,0.116376500001934,0.0201681136180557,1
47,4,466,920,92,-45,-1.69533472070549,-1,0.529104799999914,0.0507919999981823,0.924344700000802,0.0201681136180557,1
10,4,467,180,18,45,-1.69533472070549,-1,0.399970800001029,0.0447266000010131,0.178873099997872,0.0201681136180557,0
29,4,468,560,56,-45,-1.69533472070549,-1,0.506410699999833,0.0404533000000811,0.556766999998217,0.0201681136180557,1
14,4,469,260,26,-45,-1.69533472070549,-1,0.5479024999986,0.0435244000000239,0.256762900000467,0.0201681136180557,1
49,4,470,960,96,45,-1.69533472070549,1,0.470782599997619,0.0442617000007886,0.956879800000024,0.0201681136180557,1
18,4,471,340,34,45,-1.69533472070549,1,0.40256170000066,0.0512163999992481,0.346386400000483,0.0201681136180557,1
41,4,472,800,80,-45,-1.69533472070549,1,0.280003600000782,0.0503293634064903,0.805485200002295,0.0201681136180557,0
20,4,473,380,38,-45,-1.69533472070549,1,0.378238400000555,0.0448945999996795,0.377169800001866,0.0201681136180557,0
26,4,474,500,50,45,-1.69533472070549,1,0.411276000002545,0.0486396999986027,0.499718999999459,0.0201681136180557,1
20,4,475,380,38,-45,-1.69533472070549,-1,0.478728400001273,0.0408055000007153,0.376585399997566,0.0201681136180557,1
27,4,476,520,52,-45,-1.69533472070549,-1,0.466298999999708,0.0409930999994685,0.516615000000456,0.0201681136180557,1
32,4,477,620,62,45,-1.69533472070549,-1,0.411545599999954,0.0434893999990891,0.616870500001824,0.0201681136180557,0
1,4,478,0,0,45,-1.69533472070549,-1,1.08821510000053,0.0455473000001803,0.00211549999949057,0.0201681136180557,0
11,4,479,200,20,45,-1.69533472070549,1,0.610508399997343,0.0503156000013405,0.203159199998481,0.0201681136180557,1
12,4,480,220,22,-45,-1.69533472070549,-1,0.515583699998388,0.048514800000703,0.219888399999036,0.0201681136180557,1
4,4,481,60,6,-45,-1.69533472070549,-1,0.531771399997524,0.0500909000002139,0.0741748000000371,0.0201681136180557,1
38,4,482,740,74,45,-1.69533472070549,1,0.470547599998099,0.0507008999993559,0.742779899999732,0.0201681136180557,1
15,4,483,280,28,45,-1.69533472070549,-1,0.417034800000692,0.042270500001905,0.276586299998598,0.0201681136180557,0
4,4,484,60,6,45,-1.69533472070549,-1,0.48472319999928,0.0502362000006542,0.0731903999985661,0.0201681136180557,0
40,4,485,780,78,45,-1.69533472070549,-1,0.527564300002268,0.050675800001045,0.781682699998782,0.0201681136180557,0
1,4,486,0,0,-45,-1.69533472070549,-1,1.07422439999937,0.0441814000005252,0.00148979999721632,0.0201681136180557,1
7,4,487,120,12,45,-1.69533472070549,1,0.481749800001126,0.0414925000004587,0.116386599998805,0.0201681136180557,1
30,4,488,580,58,45,-1.69533472070549,-1,0.378304099998786,0.0482405000002473,0.581298799999786,0.0201681136180557,0
5,4,489,80,8,-45,-1.69533472070549,-1,0.435672299998259,0.0464097999974911,0.0773326000016823,0.0201681136180557,1
21,4,490,400,40,-45,-1.69533472070549,-1,0.374682699999539,0.0443453000007139,0.396595999998681,0.0201681136180557,1
49,4,491,960,96,-45,-1.69533472070549,-1,0.168437699998321,0.0502266999974381,0.965182800002367,0.0201681136180557,1
5,4,492,80,8,-45,-1.69533472070549,-1,1.49466620000021,0.0440022675975342,0.077277632401092,0.0201681136180557,1
43,4,493,840,84,45,-1.69533472070549,1,0.453494999997929,0.0493674000026658,0.840932399998565,0.0201681136180557,1
24,4,494,460,46,45,-1.69533472070549,-1,0.47793989999991,0.0415681000013137,0.456683299998986,0.0201681136180557,0
17,4,495,320,32,45,-1.69533472070549,1,0.473529599999893,0.0418889999964449,0.316728800000419,0.0201681136180557,1
34,4,496,660,66,-45,-1.69533472070549,-1,0.45388069999899,0.0411724999976286,0.65686260000075,0.0201681136180557,1
33,4,497,640,64,45,-1.69533472070549,1,0.513871699997253,0.0472325000009732,0.638772799997241,0.0201681136180557,1
49,4,498,960,96,45,-1.69533472070549,1,0.390504700000747,0.0444144000030064,0.956907899999351,0.0201681136180557,1
42,4,499,820,82,45,-1.69533472070549,1,0.403827499998442,0.0422758999993675,0.817735200002062,0.0201681136180557,1
32,4,500,620,62,-45,-1.69533472070549,-1,0.448285899998154,0.0492981999996118,0.622212300000683,0.0201681136180557,1
45,4,501,880,88,-45,-1.69533472070549,-1,0.423257599999488,0.0435958999987633,0.876974800001335,0.0201681136180557,1
14,4,502,260,26,45,-1.69533472070549,-1,0.53061979999984,0.0445087000007334,0.256784299999708,0.0201681136180557,0
6,4,503,100,10,45,-1.69533472070549,-1,0.477868699999817,0.0514137999998638,0.110741799999232,0.0201681136180557,0
35,4,504,680,68,-45,-1.69533472070549,-1,0.607751600000483,0.0438353999998071,0.676758900001005,0.0201681136180557,1
18,4,505,340,34,45,-1.69533472070549,1,0.991875900002924,0.0447489999969548,0.339370900001086,0.0201681136180557,1
44,4,506,860,86,45,-1.69533472070549,1,0.503462299999228,0.0450949000005494,0.859452099997725,0.0201681136180557,1
38,4,507,740,74,-45,-1.69533472070549,-1,0.462238899999647,0.0457853000007162,0.74015800000052,0.0201681136180557,1
40,4,508,780,78,-45,-1.69533472070549,-1,0.41389849999905,0.0413443351972091,0.777021264802897,0.0201681136180557,1
28,4,509,540,54,45,-1.69533472070549,1,1.18384399999923,0.0500947000000451,0.541907900002116,0.0201681136180557,1
13,4,510,240,24,-45,-1.69533472070549,1,0.532653700000083,0.0443947999992815,0.238483900000574,0.0201681136180557,0
50,4,511,980,98,-45,-1.69533472070549,-1,0.514695400001074,0.0441184000010253,0.977477299999009,0.0201681136180557,1
35,4,512,680,68,45,-1.69533472070549,-1,0.509015999999974,0.0436167000007117,0.679514199997357,0.0201681136180557,0
9,4,513,160,16,-45,-1.69533472070549,-1,0.440569500002312,0.0499450999996043,0.165765400000964,0.0201681136180557,1
47,4,514,920,92,45,-1.69533472070549,-1,0.422606100000849,0.0487312000004749,0.920546000001195,0.0201681136180557,0
22,4,515,420,42,-45,-1.69533472070549,-1,0.390297400001145,0.0410860000010871,0.416410000001633,0.0201681136180557,1
3,4,516,40,4,45,-1.69533472070549,1,0.671857599998475,0.0400159999990137,0.0562642000004416,0.0201681136180557,1
15,4,517,280,28,-45,-1.69533472070549,-1,0.417404600000737,0.0498122999997577,0.28440000000046,0.0201681136180557,1
22,4,518,420,42,-45,-1.69533472070549,1,0.454277699998784,0.0413265999995929,0.416696800002683,0.0201681136180557,0
39,4,519,760,76,45,-1.69533472070549,-1,0.481957399999374,0.0404505999977118,0.757040500000585,0.0201681136180557,0
16,4,520,300,30,-45,-1.69533472070549,-1,0.605900700000348,0.0412728999981482,0.296497499999532,0.0201681136180557,1
8,4,521,140,14,45,-1.69533472070549,1,0.579409099998884,0.0399652999985847,0.148599700001796,0.0201681136180557,1
36,4,522,700,70,-45,-1.69533472070549,1,0.644368799999938,0.0478411000003689,0.699515500000416,0.0201681136180557,0
11,4,523,200,20,-45,-1.69533472070549,-1,0.450618299997586,0.0409734999993816,0.196622399998887,0.0201681136180557,1
9,4,524,160,16,45,-1.69533472070549,-1,0.440767799998866,0.0504307000010158,0.164384299998346,0.0201681136180557,0
32,4,525,620,62,-45,-1.69533472070549,-1,0.439103400000022,0.0450007999970694,0.619730700000218,0.0201681136180557,1
40,4,526,780,78,45,-1.69533472070549,1,0.523593599999003,0.043371699997806,0.776952899999742,0.0201681136180557,1
6,4,527,100,10,-45,-1.69533472070549,-1,0.486810099999275,0.0407072999987577,0.0963086000010662,0.0201681136180557,1
13,4,528,240,24,-45,-1.69533472070549,-1,0.48654439999882,0.0510404999986349,0.246205600000394,0.0201681136180557,1
51,4,529,1000,100,-45,-1.69533472070549,-1,1.55225930000233,0.0427861999996821,0.996844199999032,0.0201681136180557,1
48,4,530,940,94,-45,-1.69533472070549,-1,0.699153400000796,0.0507791999989422,0.94522020000295,0.0201681136180557,1
28,4,531,540,54,45,-1.69533472070549,-1,0.701534299998457,0.050212800000736,0.544338699997752,0.0201681136180557,0
1,4,532,0,0,45,-1.69533472070549,-1,0.732580600000801,0.0400702999977511,0.0273607000017364,0.0201681136180557,0
33,4,533,640,64,45,-1.69533472070549,1,0.487625199999457,0.0441572999989148,0.636086000002251,0.0201681136180557,1
27,4,534,520,52,-45,-1.69533472070549,-1,0.608799699999508,0.0437039999997069,0.51574360000086,0.0201681136180557,1
8,4,535,140,14,-45,-1.69533472070549,-1,0.551745900000242,0.0501705999995465,0.149867000000086,0.0201681136180557,1
31,4,536,600,60,45,-1.69533472070549,-1,0.564904099999694,0.0498692000001029,0.600967900001706,0.0201681136180557,0
46,4,537,900,90,-45,-1.69533472070549,-1,0.518239800003357,0.0413487000005262,0.895963499999198,0.0201681136180557,1
44,4,538,860,86,-45,-1.69533472070549,-1,0.685439299999416,0.042445700000826,0.856100199998764,0.0201681136180557,1
24,4,539,460,46,45,-1.69533472070549,-1,0.623725800000102,0.0494761999980255,0.462821600001917,0.0201681136180557,0
45,4,540,880,88,-45,-1.69533472070549,-1,0.59940259999712,0.0426649999972142,0.877848200001608,0.0201681136180557,1
38,4,541,740,74,-45,-1.69533472070549,-1,0.612422099999094,0.0428630000023986,0.736822299997584,0.0201681136180557,1
4,4,542,60,6,45,-1.69533472070549,1,0.659774800002197,0.0502994999988005,0.073576700000558,0.0201681136180557,1
7,4,543,120,12,45,-1.69533472070549,1,0.52702649999992,0.043122900002345,0.11743419999766,0.0201681136180557,1
23,4,544,440,44,45,-1.69533472070549,1,0.427872299998853,0.0450149689968384,0.439292231003492,0.0201681136180557,1
31,4,545,600,60,45,-1.69533472070549,1,0.91359889999876,0.041416100000788,0.596695699998236,0.0201681136180557,1
16,4,546,300,30,45,-1.69533472070549,1,0.550798799999029,0.0451290000019071,0.299673999998049,0.0201681136180557,1
6,4,547,100,10,45,-1.69533472070549,1,0.529350699998759,0.0400052000004507,0.118329599998106,0.0201681136180557,1
28,4,548,540,54,45,-1.69533472070549,1,0.525578600001609,0.0498645000006945,0.54314610000074,0.0201681136180557,1
31,4,549,600,60,45,-1.69533472070549,1,0.43114179999975,0.044128699999419,0.596865499999694,0.0201681136180557,1
36,4,550,700,70,45,-1.69533472070549,1,0.399979100002383,0.0503468999995675,0.701528699999471,0.0201681136180557,1
27,4,551,520,52,45,-1.69533472070549,1,0.564346999999543,0.0497277000031318,0.521554999999353,0.0201681136180557,1
3,4,552,40,4,-45,-1.69533472070549,-1,0.560751299999538,0.0400043999979971,0.055430600001273,0.0201681136180557,1
9,4,553,160,16,-45,-1.69533472070549,-1,0.463448700000299,0.0486888000014005,0.159638199998881,0.0201681136180557,1
34,4,554,660,66,45,-1.69533472070549,1,0.579080499999691,0.043981700000586,0.656859800001257,0.0201681136180557,1
30,4,555,580,58,45,-1.69533472070549,1,0.932621899999504,0.0424357999982021,0.576924199998757,0.0201681136180557,1
36,4,556,700,70,45,-1.69533472070549,1,0.541732099998626,0.0414920000002894,0.696755000000849,0.0201681136180557,1
51,4,557,1000,100,-45,-1.69533472070549,-1,0.467011400000047,0.0403425000004063,0.996901399998023,0.0201681136180557,1
37,4,558,720,72,45,-1.69533472070549,-1,0.577367599998979,0.0473886999971,0.71912230000089,0.0201681136180557,0
24,4,559,460,46,45,-1.69533472070549,1,0.478889499998331,0.0495332999998936,0.463339199999609,0.0201681136180557,1
19,4,560,360,36,45,-1.69533472070549,-1,0.48330949999945,0.0498106999984884,0.362413200000447,0.0201681136180557,0
43,4,561,840,84,-45,-1.69533472070549,-1,0.484315300000162,0.0492895999996108,0.841963800001395,0.0201681136180557,1
21,4,562,400,40,45,-1.69533472070549,1,0.501878600000055,0.0448179999984859,0.397472800003015,0.0201681136180557,1
46,4,563,900,90,-45,-1.69533472070549,1,0.452141599998868,0.0433019999982207,0.896888899998885,0.0201681136180557,0
35,4,564,680,68,-45,-1.69533472070549,-1,0.462950900000578,0.0509149999998044,0.685800900002505,0.0201681136180557,1
48,4,565,940,94,-45,-1.69533472070549,-1,0.428963700000168,0.0510945999994874,0.943605299999035,0.0201681136180557,1
25,4,566,480,48,-45,-1.69533472070549,-1,0.410356899999897,0.0507548999994469,0.482771399998455,0.0201681136180557,1
30,4,567,580,58,-45,-1.69533472070549,-1,0.501085500000045,0.0500859999992826,0.5844571000016,0.0201681136180557,1
51,4,568,1000,100,-45,-1.69533472070549,-1,0.474570100002893,0.0453712999988056,0.999871600000915,0.0201681136180557,1
5,4,569,80,8,-45,-1.69533472070549,-1,0.442340000001423,0.0409429999999702,0.0763081000004604,0.0201681136180557,1
13,4,570,240,24,-45,-1.69533472070549,-1,0.536054299998796,0.0436141000027419,0.236511299997801,0.0201681136180557,1
11,4,571,200,20,-45,-1.69533472070549,-1,0.436514699998952,0.0504527000011876,0.200691099998949,0.0201681136180557,1
43,4,572,840,84,45,-1.69533472070549,-1,0.523951999999554,0.04499080000096,0.839288399998622,0.0201681136180557,0
12,4,573,220,22,45,-1.69533472070549,-1,0.48552760000166,0.047287099998357,0.219316500002606,0.0201681136180557,0
39,4,574,760,76,-45,-1.69533472070549,-1,0.593651300001511,0.049715399996785,0.764772400001675,0.0201681136180557,1
3,4,575,40,4,-45,-1.69533472070549,-1,0.674377600000298,0.0511855000004289,0.0584350999997696,0.0201681136180557,1
50,4,576,980,98,45,-1.69533472070549,1,0.532799700002215,0.0426504999995814,0.976827999998932,0.0201681136180557,1
10,4,577,180,18,45,-1.69533472070549,1,0.564924800000881,0.0492379000024812,0.185967800000071,0.0201681136180557,1
19,4,578,360,36,45,-1.69533472070549,1,0.497911000002205,0.0410054000021773,0.357004699999379,0.0201681136180557,1
12,4,579,220,22,45,-1.69533472070549,1,0.480871599997045,0.0494641000004776,0.22161540000161,0.0201681136180557,1
39,4,580,760,76,-45,-1.69533472070549,-1,0.455496999999013,0.0484166999995068,0.760028200002125,0.0201681136180557,1
37,4,581,720,72,-45,-1.69533472070549,-1,0.423106799997186,0.051202499998908,0.725262299998576,0.0201681136180557,1
29,4,582,560,56,-45,-1.69533472070549,-1,0.514935299997887,0.0453913000019384,0.559315599999536,0.0201681136180557,1
10,4,583,180,18,45,-1.69533472070549,1,0.496224400001665,0.0449877999999444,0.17905840000094,0.0201681136180557,1
47,4,584,920,92,-45,-1.69533472070549,-1,0.441370900000038,0.0473166000010679,0.918934299999819,0.0201681136180557,1
46,4,585,900,90,45,-1.69533472070549,-1,0.434739600001194,0.0507407000004605,0.906552399999782,0.0201681136180557,0
26,4,586,500,50,45,-1.69533472070549,-1,0.437695799999346,0.0414516000018921,0.49699789999795,0.0201681136180557,0
23,4,587,440,44,-45,-1.69533472070549,1,0.413622700001724,0.0445998703908117,0.437023929607676,0.0201681136180557,0
21,4,588,400,40,45,-1.69533472070549,1,0.472240099999908,0.0426781999995001,0.39670710000064,0.0201681136180557,1
41,4,589,800,80,-45,-1.69533472070549,-1,0.745483999999124,0.0409472999999707,0.797080500000448,0.0201681136180557,1
16,4,590,300,30,45,-1.69533472070549,1,0.404096400001436,0.0484495000018796,0.299746400000004,0.0201681136180557,1
41,4,591,800,80,45,-1.69533472070549,-1,0.523317499999393,0.0403943000019353,0.796378600000025,0.0201681136180557,0
19,4,592,360,36,-45,-1.69533472070549,-1,0.458930199998576,0.0452456999992137,0.359680700003082,0.0201681136180557,1
29,4,593,560,56,-45,-1.69533472070549,-1,0.601979700000811,0.0411048999994819,0.557049799997912,0.0201681136180557,1
48,4,594,940,94,-45,-1.69533472070549,-1,0.53960879999795,0.0436221000018122,0.936921799999254,0.0201681136180557,1
45,4,595,880,88,45,-1.69533472070549,1,0.484092400001828,0.0459603999988758,0.878081200000452,0.0201681136180557,1
22,4,596,420,42,-45,-1.69533472070549,-1,0.393809100001818,0.0497015000000829,0.420676400000957,0.0201681136180557,1
18,4,597,340,34,45,-1.69533472070549,1,0.630524699998205,0.0499535000017204,0.343542799997522,0.0201681136180557,1
23,4,598,440,44,-45,-1.69533472070549,-1,0.350369799998589,0.0443377999981749,0.436846399999922,0.0201681136180557,1
42,4,599,820,82,-45,-1.69533472070549,-1,0.379620899999281,0.0481365999985428,0.820069500001409,0.0201681136180557,1
15,4,600,280,28,-45,-1.69533472070549,-1,0.460583899999619,0.0448555000002671,0.278437000000849,0.0201681136180557,1
25,4,601,480,48,-45,-1.69533472070549,-1,0.650369700000738,0.0405965999998443,0.476725600001373,0.0201681136180557,1
50,4,602,980,98,45,-1.69533472070549,1,0.40318489999845,0.042533399999229,0.978401100001065,0.0201681136180557,1
17,4,603,320,32,-45,-1.69533472070549,-1,0.698955899999419,0.0491924999987532,0.323477800000546,0.0201681136180557,1
20,4,604,380,38,-45,-1.69533472070549,-1,0.8759026000007,0.0510964000022796,0.385123399999429,0.0201681136180557,1
33,4,605,640,64,45,-1.69533472070549,-1,0.488553499999398,0.0495450000016717,0.645808099998249,0.0201681136180557,0
2,4,606,20,2,-45,-1.69533472070549,-1,0.606568200000766,0.0399728999982472,0.0414616000016395,0.0201681136180557,1
34,4,607,660,66,45,-1.69533472070549,1,0.526409099999,0.0468693000002531,0.658358900000167,0.0201681136180557,1
14,4,608,260,26,-45,-1.69533472070549,1,0.547719599999255,0.0436663999971643,0.256807800000388,0.0201681136180557,0
2,4,609,20,2,45,-1.69533472070549,-1,0.605864500001189,0.0400601999972423,0.02623670000321,0.0201681136180557,0
25,4,610,480,48,-45,-1.69533472070549,1,0.346420699999726,0.0511198999993212,0.482548900003167,0.0201681136180557,0
42,4,611,820,82,-45,-1.69533472070549,1,0.611440700002277,0.0503058986032556,0.825826099997357,0.0201681136180557,0
26,4,612,500,50,45,-1.69533472070549,1,0.469177399998443,0.0413627000016277,0.497348400000192,0.0201681136180557,1
18,5,613,340,34,45,-1.69533472070549,1,0.511523500001204,0.0446956999985559,0.339656000000105,0.0201681136180557,1
32,5,614,620,62,-45,-1.69533472070549,-1,0.362695100000565,0.0438699000005727,0.617366200000106,0.0201681136180557,1
1,5,615,0,0,-45,-1.69533472070549,-1,0.471898499999952,0.0502142000004824,0.0218622000029427,0.0201681136180557,1
40,5,616,780,78,-45,-1.69533472070549,-1,0.414427899999282,0.0500541000001249,0.783815800001321,0.0201681136180557,1
44,5,617,860,86,-45,-1.69533472070549,-1,0.490575899999385,0.0439669999977923,0.857054300002346,0.0201681136180557,1
22,5,618,420,42,-45,-1.69533472070549,-1,0.421996400000353,0.0509672000007413,0.423289000002114,0.0201681136180557,1
48,5,619,940,94,45,-1.69533472070549,1,0.71962259999782,0.0503162999993947,0.942082499997923,0.0201681136180557,1
14,5,620,260,26,-45,-1.69533472070549,-1,0.399304299997311,0.0451290000019071,0.259058600000571,0.0201681136180557,1
6,5,621,100,10,-45,-1.69533472070549,1,0.453196499998739,0.0491744999999355,0.104874300002848,0.0201681136180557,0
1,5,622,0,0,-45,-1.69533472070549,-1,0.50743169999987,0.0481472000028589,0.00398169999971287,0.0201681136180557,1
17,5,623,320,32,-45,-1.69533472070549,-1,0.451712199999747,0.0448851999972248,0.319154400000116,0.0201681136180557,1
32,5,624,620,62,-45,-1.69533472070549,-1,0.558195600002364,0.0500847000002977,0.623644299997977,0.0201681136180557,1
45,5,625,880,88,-45,-1.69533472070549,-1,0.515351000001829,0.0450858000003791,0.879356899997219,0.0201681136180557,1
22,5,626,420,42,-45,-1.69533472070549,-1,0.540956000000733,0.0476264999997511,0.419508599999972,0.0201681136180557,1
42,5,627,820,82,45,-1.69533472070549,-1,0.822945200001413,0.040423299997201,0.816823299999669,0.0201681136180557,0
51,5,628,1000,100,-45,-1.69533472070549,-1,0.465156800000841,0.0416330999978527,0.997097800001939,0.0201681136180557,1
51,5,629,1000,100,45,-1.69533472070549,1,0.472791700001835,0.0473133999985293,1.00001770000017,0.0201681136180557,1
49,5,630,960,96,-45,-1.69533472070549,-1,0.472342599998228,0.0424343999984558,0.956943400000455,0.0201681136180557,1
2,5,631,20,2,-45,-1.69533472070549,-1,0.550279300001421,0.0502616000012495,0.039689899997029,0.0201681136180557,1
15,5,632,280,28,45,-1.69533472070549,1,0.78101169999718,0.0447663999984798,0.278210100001161,0.0201681136180557,1
19,5,633,360,36,-45,-1.69533472070549,-1,0.351678399998491,0.0509917999988829,0.365483500001574,0.0201681136180557,1
44,5,634,860,86,45,-1.69533472070549,1,0.468185900001117,0.0482307999991463,0.859495900000184,0.0201681136180557,1
19,5,635,360,36,45,-1.69533472070549,1,0.57863460000226,0.0408540999997058,0.356601600000431,0.0201681136180557,1
16,5,636,300,30,45,-1.69533472070549,1,0.494832299998961,0.051280499999848,0.301764899999398,0.0201681136180557,1
38,5,637,740,74,-45,-1.69533472070549,-1,0.478750900001614,0.0455141000020376,0.739762299999711,0.0201681136180557,1
50,5,638,980,98,45,-1.69533472070549,1,0.480229099997814,0.0440428000001702,0.979555199999595,0.0201681136180557,1
34,5,639,660,66,-45,-1.69533472070549,-1,0.422853899999609,0.0498613296040276,0.663444800000434,0.0201681136180557,1
46,5,640,900,90,-45,-1.69533472070549,-1,0.51652169999943,0.0506961000028241,0.90501089999816,0.0201681136180557,1
46,5,641,900,90,45,-1.69533472070549,1,0.51155789999757,0.0448413000012806,0.899585499999375,0.0201681136180557,1
4,5,642,60,6,-45,-1.69533472070549,-1,0.542320600001403,0.0500168000035046,0.0793101999988721,0.0201681136180557,1
39,5,643,760,76,45,-1.69533472070549,1,0.612585899998521,0.0492316000018036,0.762358299998596,0.0201681136180557,1
43,5,644,840,84,45,-1.69533472070549,1,0.447092300000804,0.0437581000005594,0.836959300002491,0.0201681136180557,1
17,5,645,320,32,45,-1.69533472070549,1,0.592023899997002,0.0482210000009218,0.319452699997782,0.0201681136180557,1
49,5,646,960,96,-45,-1.69533472070549,-1,0.499814999999217,0.0450115999992704,0.959355800001504,0.0201681136180557,1
7,5,647,120,12,45,-1.69533472070549,1,0.459789500000625,0.0449635000004491,0.119014399999287,0.0201681136180557,1
2,5,648,20,2,45,-1.69533472070549,-1,0.510498000003281,0.0399810999988404,0.0411094000010053,0.0201681136180557,0
49,5,649,960,96,-45,-1.69533472070549,-1,0.449864300000627,0.0473515000012412,0.9584165999986,0.0201681136180557,1
5,5,650,80,8,-45,-1.69533472070549,-1,0.468000000000757,0.046479433796776,0.0777348662013537,0.0201681136180557,1
38,5,651,740,74,-45,-1.69533472070549,-1,0.43584650000048,0.0431626675963344,0.737124032402789,0.0201681136180557,1
43,5,652,840,84,45,-1.69533472070549,1,0.452827799999795,0.0490462000016123,0.841691300000093,0.0201681136180557,1
24,5,653,460,46,45,-1.69533472070549,1,0.459714399999939,0.0437022999976762,0.45683629999985,0.0201681136180557,1
5,5,654,80,8,45,-1.69533472070549,1,0.501465099998313,0.0399999000001117,0.0985622000007425,0.0201681136180557,1
44,5,655,860,86,45,-1.69533472070549,1,0.46175360000052,0.0414151000004495,0.856805499999609,0.0201681136180557,1
24,5,656,460,46,45,-1.69533472070549,1,0.471170300002996,0.0450025999998616,0.459380299998884,0.0201681136180557,1
5,5,657,80,8,-45,-1.69533472070549,-1,0.44023179999931,0.0434619999978167,0.0762372000026517,0.0201681136180557,1
33,5,658,640,64,45,-1.69533472070549,1,0.554094800001621,0.0512491999979829,0.642327600002318,0.0201681136180557,1
32,5,659,620,62,-45,-1.69533472070549,1,0.535277499999211,0.045465700000932,0.618977900001482,0.0201681136180557,0
9,5,660,160,16,-45,-1.69533472070549,-1,0.392858899998828,0.0425719000013487,0.156537599999865,0.0201681136180557,1
26,5,661,500,50,45,-1.69533472070549,1,0.494959700001345,0.045055800001137,0.499804799997946,0.0201681136180557,1
23,5,662,440,44,-45,-1.69533472070549,-1,0.490951200001291,0.0450975999992806,0.439843300002394,0.0201681136180557,1
26,5,663,500,50,-45,-1.69533472070549,-1,0.537433699999383,0.0493771999972523,0.501149900002929,0.0201681136180557,1
37,5,664,720,72,-45,-1.69533472070549,-1,0.440481900001032,0.0421186999992642,0.717057199999545,0.0201681136180557,1
35,5,665,680,68,-45,-1.69533472070549,-1,0.458801200002199,0.0451401000027545,0.679782299997896,0.0201681136180557,1
30,5,666,580,58,-45,-1.69533472070549,-1,0.469773100001476,0.0410221999991336,0.576874899998074,0.0201681136180557,1
27,5,667,520,52,-45,-1.69533472070549,-1,0.528325800001767,0.0510806000020239,0.524222899999586,0.0201681136180557,1
8,5,668,140,14,45,-1.69533472070549,1,0.610554400002002,0.0488690999991377,0.140156499997829,0.0201681136180557,1
23,5,669,440,44,-45,-1.69533472070549,-1,0.319734100001369,0.0436395999968227,0.436632600001758,0.0201681136180557,1
42,5,670,820,82,-45,-1.69533472070549,-1,0.556184699998994,0.0477850999996008,0.820124300000316,0.0201681136180557,1
8,5,671,140,14,45,-1.69533472070549,1,0.542140199999267,0.0414855000017269,0.136371799999324,0.0201681136180557,1
39,5,672,760,76,-45,-1.69533472070549,-1,0.430924300002516,0.0441686999984086,0.757002500002272,0.0201681136180557,1
50,5,673,980,98,-45,-1.69533472070549,-1,0.511254099998041,0.0451799000002211,0.979582299998583,0.0201681136180557,1
14,5,674,260,26,45,-1.69533472070549,-1,0.544184300000779,0.0448164000008546,0.25900719999845,0.0201681136180557,0
45,5,675,880,88,-45,-1.69533472070549,-1,0.486060800001724,0.0449140000018815,0.87690179999845,0.0201681136180557,1
28,5,676,540,54,-45,-1.69533472070549,-1,0.474627100000362,0.0430721000011545,0.537987499999872,0.0201681136180557,1
2,5,677,20,2,45,-1.69533472070549,1,1.09925329999896,0.0399295000024722,0.0283305999982986,0.0201681136180557,1
4,5,678,60,6,-45,-1.69533472070549,-1,0.804850799999258,0.0400172000008752,0.0670572999988508,0.0201681136180557,1
13,5,679,240,24,45,-1.69533472070549,-1,0.508343800000148,0.0505825000000186,0.240962700001546,0.0201681136180557,0
42,5,680,820,82,45,-1.69533472070549,1,0.382535799999459,0.0455347999995865,0.819489900000917,0.0201681136180557,1
12,5,681,220,22,45,-1.69533472070549,1,0.523678199999267,0.0434139999997569,0.21658060000118,0.0201681136180557,1
10,5,682,180,18,45,-1.69533472070549,1,0.567244099998788,0.0508427000022493,0.181902499996795,0.0201681136180557,1
36,5,683,700,70,-45,-1.69533472070549,-1,0.62088710000171,0.0415677000019059,0.696823499998573,0.0201681136180557,1
8,5,684,140,14,45,-1.69533472070549,-1,0.615113099996961,0.0469209999973828,0.138213600002928,0.0201681136180557,0
51,5,685,1000,100,-45,-1.69533472070549,-1,0.493749999997817,0.0445967000014207,0.99758970000039,0.0201681136180557,1
50,5,686,980,98,45,-1.69533472070549,1,0.453744400001597,0.0412428999989061,0.976816300000792,0.0201681136180557,1
48,5,687,940,94,-45,-1.69533472070549,-1,0.462274800000159,0.0410274999994726,0.936880900000688,0.0201681136180557,1
40,5,688,780,78,-45,-1.69533472070549,-1,0.525651699997979,0.0509880999998131,0.783468000001449,0.0201681136180557,1
29,5,689,560,56,-45,-1.69533472070549,-1,0.409202799997729,0.0415800999981002,0.556776699999318,0.0201681136180557,1
7,5,690,120,12,-45,-1.69533472070549,-1,0.463904900003399,0.0436676999997871,0.116338700001506,0.0201681136180557,1
25,5,691,480,48,45,-1.69533472070549,1,0.470896799997718,0.0510419999991427,0.486183600001823,0.0201681136180557,1
37,5,692,720,72,45,-1.69533472070549,1,0.73884309999994,0.0464590999981738,0.71793389999948,0.0201681136180557,1
21,5,693,400,40,-45,-1.69533472070549,1,0.484741300002497,0.0450285999977496,0.398421600002621,0.0201681136180557,0
20,5,694,380,38,-45,-1.69533472070549,-1,0.360100699999748,0.0452132999998867,0.378366900000401,0.0201681136180557,1
15,5,695,280,28,45,-1.69533472070549,1,0.703916899998148,0.0501832999980252,0.285514700000931,0.0201681136180557,1
31,5,696,600,60,-45,-1.69533472070549,-1,0.368564000000333,0.0504859000029683,0.604884799999127,0.0201681136180557,1
39,5,697,760,76,-45,-1.69533472070549,-1,0.546074599998974,0.0409552000019175,0.756824299998698,0.0201681136180557,1
12,5,698,220,22,45,-1.69533472070549,-1,0.465932900002372,0.0494489999982761,0.220649900002172,0.0201681136180557,0
9,5,699,160,16,45,-1.69533472070549,1,0.550993400000152,0.0429686999996193,0.158078100001148,0.0201681136180557,1
20,5,700,380,38,-45,-1.69533472070549,1,0.583927400002722,0.044938004190044,0.379285595809051,0.0201681136180557,0
18,5,701,340,34,45,-1.69533472070549,1,0.93514530000175,0.0494476000021677,0.343420299999707,0.0201681136180557,1
34,5,702,660,66,-45,-1.69533472070549,-1,0.495287800000369,0.0445576999991317,0.659819900000002,0.0201681136180557,1
13,5,703,240,24,-45,-1.69533472070549,-1,0.546725100000913,0.045399599999655,0.239484599998832,0.0201681136180557,1
28,5,704,540,54,45,-1.69533472070549,1,0.490234500000952,0.0435880000004545,0.537922199997411,0.0201681136180557,1
47,5,705,920,92,-45,-1.69533472070549,-1,0.559431099998619,0.0512119000013627,0.925266400001419,0.0201681136180557,1
36,5,706,700,70,45,-1.69533472070549,1,0.527044599999499,0.0403588999979547,0.696128900002805,0.0201681136180557,1
9,5,707,160,16,-45,-1.69533472070549,-1,0.49558210000032,0.0483997000010277,0.15995539999858,0.0201681136180557,1
10,5,708,180,18,-45,-1.69533472070549,1,0.517200599999342,0.0421662999979162,0.176313399999344,0.0201681136180557,0
37,5,709,720,72,-45,-1.69533472070549,-1,0.447186900000816,0.0489714902214473,0.719983499999216,0.0201681136180557,1
43,5,710,840,84,-45,-1.69533472070549,-1,0.465316000001621,0.04160100000081,0.836891399998422,0.0201681136180557,1
11,5,711,200,20,-45,-1.69533472070549,-1,0.589274000001751,0.0453206000020145,0.197352799998043,0.0201681136180557,1
36,5,712,700,70,-45,-1.69533472070549,-1,0.476961100001063,0.0417012999969302,0.697008099999948,0.0201681136180557,1
33,5,713,640,64,-45,-1.69533472070549,-1,0.515422299999045,0.0450267999985954,0.639687900002173,0.0201681136180557,1
41,5,714,800,80,45,-1.69533472070549,1,0.547876200002065,0.0462017999998352,0.798008499998105,0.0201681136180557,1
13,5,715,240,24,-45,-1.69533472070549,-1,0.683192799999233,0.0407473999985086,0.236022000000958,0.0201681136180557,1
25,5,716,480,48,45,-1.69533472070549,1,0.553830199998629,0.041525399999955,0.476660500000435,0.0201681136180557,1
34,5,717,660,66,45,-1.69533472070549,-1,0.402363099998183,0.0445733000015025,0.657002099997044,0.0201681136180557,0
1,5,718,0,0,45,-1.69533472070549,-1,0.681631399998878,0.0400694999989355,0.0302449000009801,0.0201681136180557,0
7,5,719,120,12,-45,-1.69533472070549,-1,0.56109479999941,0.0422584000007191,0.116344099998969,0.0201681136180557,1
29,5,720,560,56,45,-1.69533472070549,1,0.566507100000308,0.0441455000000133,0.556971900001372,0.0201681136180557,1
47,5,721,920,92,45,-1.69533472070549,-1,0.417585099999997,0.0414627999998629,0.916848400000163,0.0201681136180557,0
3,5,722,40,4,45,-1.69533472070549,1,0.515612099999998,0.0404907999982242,0.0356498000001011,0.0201681136180557,1
4,5,723,60,6,-45,-1.69533472070549,1,0.657843299999513,0.0400553999970725,0.0696953000006033,0.0201681136180557,0
14,5,724,260,26,-45,-1.69533472070549,-1,0.941266699999687,0.0469167999981437,0.259711200000311,0.0201681136180557,1
35,5,725,680,68,45,-1.69533472070549,-1,0.578691899998375,0.0403832999982114,0.676852900000085,0.0201681136180557,0
23,5,726,440,44,-45,-1.69533472070549,-1,0.591322500000388,0.0441202000001795,0.436682700001256,0.0201681136180557,1
38,5,727,740,74,45,-1.69533472070549,-1,0.436537599998701,0.0425338999993983,0.7368936999992,0.0201681136180557,0
46,5,728,900,90,-45,-1.69533472070549,-1,0.468744499998138,0.0420840000006137,0.897085900000093,0.0201681136180557,1
41,5,729,800,80,45,-1.69533472070549,-1,0.246403299999656,0.0441594000003533,0.796884700001101,0.0201681136180557,0
3,5,730,40,4,45,-1.69533472070549,1,0.61362630000076,0.0504844000024605,0.0401695000000473,0.0201681136180557,1
17,5,731,320,32,45,-1.69533472070549,1,0.367520100000547,0.049094399997557,0.319266500002414,0.0201681136180557,1
6,5,732,100,10,45,-1.69533472070549,1,0.548535999998421,0.049795399998402,0.105638799999724,0.0201681136180557,1
19,5,733,360,36,45,-1.69533472070549,1,0.583713500000158,0.0480481000013242,0.359700899996824,0.0201681136180557,1
27,5,734,520,52,45,-1.69533472070549,1,0.592089300000225,0.0507698000001255,0.52474539999821,0.0201681136180557,1
47,5,735,920,92,-45,-1.69533472070549,1,0.61667959999977,0.0477184999981546,0.919859300000098,0.0201681136180557,0
21,5,736,400,40,45,-1.69533472070549,1,0.465485600001557,0.0473364027966454,0.399076897203486,0.0201681136180557,1
15,5,737,280,28,45,-1.69533472070549,1,0.61319530000037,0.0495303958086879,0.281406400001288,0.0201681136180557,1
16,5,738,300,30,45,-1.69533472070549,-1,0.492956500002038,0.049635200000921,0.305265599999984,0.0201681136180557,0
20,5,739,380,38,45,-1.69533472070549,-1,0.459598400000687,0.043576199997915,0.376829100001487,0.0201681136180557,0
28,5,740,540,54,45,-1.69533472070549,-1,0.394278300002043,0.044353699999192,0.537260799999785,0.0201681136180557,0
12,5,741,220,22,45,-1.69533472070549,-1,0.481380600002012,0.0497078000007605,0.220863700000336,0.0201681136180557,0
18,5,742,340,34,-45,-1.69533472070549,-1,0.481600800001615,0.0437111000028381,0.338397599996824,0.0201681136180557,1
35,5,743,680,68,45,-1.69533472070549,1,0.49819750000097,0.0493853000007221,0.684540599999309,0.0201681136180557,1
10,5,744,180,18,45,-1.69533472070549,-1,0.532695599998988,0.0507143999966502,0.184674000000086,0.0201681136180557,0
3,5,745,40,4,-45,-1.69533472070549,-1,0.630604800000583,0.039986299998418,0.0488584000013361,0.0201681136180557,1
22,5,746,420,42,-45,-1.69533472070549,-1,0.485697000000073,0.0414543000006233,0.416658300000563,0.0201681136180557,1
29,5,747,560,56,45,-1.69533472070549,-1,0.58318109999891,0.0438524999990477,0.557068999998592,0.0201681136180557,0
11,5,748,200,20,-45,-1.69533472070549,-1,0.631447100000514,0.0488843999992241,0.199640899998485,0.0201681136180557,1
41,5,749,800,80,45,-1.69533472070549,1,0.439856500001042,0.0506209999985003,0.805118699998275,0.0201681136180557,1
48,5,750,940,94,45,-1.69533472070549,1,0.435997399999906,0.0478174000018043,0.94014949999837,0.0201681136180557,1
26,5,751,500,50,45,-1.69533472070549,1,0.451719500000763,0.043102399999043,0.496722400002909,0.0201681136180557,1
33,5,752,640,64,-45,-1.69533472070549,1,0.361001100001886,0.0505593999987468,0.644347299999936,0.0201681136180557,0
16,5,753,300,30,-45,-1.69533472070549,-1,0.583548799997516,0.0451687999993737,0.299465200001578,0.0201681136180557,1
40,5,754,780,78,45,-1.69533472070549,1,0.396247399999993,0.0427491000009468,0.77683270000125,0.0201681136180557,1
6,5,755,100,10,-45,-1.69533472070549,-1,0.687435200001346,0.0451480337978865,0.0993616662017303,0.0201681136180557,1
31,5,756,600,60,45,-1.69533472070549,1,0.369928299998719,0.041271099998994,0.596666200002801,0.0201681136180557,1
30,5,757,580,58,-45,-1.69533472070549,-1,0.597061100001156,0.0422894000002998,0.576804899999843,0.0201681136180557,1
11,5,758,200,20,45,-1.69533472070549,-1,0.578697100001591,0.040478399998392,0.196701500000927,0.0201681136180557,0
21,5,759,400,40,-45,-1.69533472070549,1,0.568277800000942,0.0497080000022834,0.405267299996922,0.0201681136180557,0
45,5,760,880,88,-45,-1.69533472070549,-1,0.280980999999883,0.0422285999993619,0.876917100002174,0.0201681136180557,1
31,5,761,600,60,45,-1.69533472070549,1,0.401094900000317,0.041727699997864,0.5969193000019,0.0201681136180557,1
24,5,762,460,46,45,-1.69533472070549,1,0.413319700001011,0.0416935337998439,0.457118466201791,0.0201681136180557,1
30,5,763,580,58,-45,-1.69533472070549,-1,0.604183600000397,0.0480956000028527,0.579932499997085,0.0201681136180557,1
27,5,764,520,52,45,-1.69533472070549,1,0.753472500000498,0.0411703999998281,0.516860199997609,0.0201681136180557,1
25,5,765,480,48,-45,-1.69533472070549,-1,0.761660400003166,0.0414259999997739,0.476627000000008,0.0201681136180557,1
38,6,766,740,74,-45,-1.69533472070549,-1,0.613283599999704,0.0498015000011947,0.745047200001864,0.0201681136180557,1
44,6,767,860,86,45,-1.69533472070549,1,0.622402500001044,0.0409709999985353,0.856831299999612,0.0201681136180557,1
30,6,768,580,58,45,-1.69533472070549,1,0.676186799999414,0.0427276000009442,0.577033099998516,0.0201681136180557,1
51,6,769,1000,100,-45,-1.69533472070549,1,0.449749200000952,0.0411929000001692,0.997084800001176,0.0201681136180557,0
49,6,770,960,96,-45,-1.69533472070549,-1,0.425656799998251,0.0409913000003144,0.956838400001288,0.0201681136180557,1
33,6,771,640,64,-45,-1.69533472070549,-1,0.573140699998476,0.0501755000004778,0.640917900000204,0.0201681136180557,1
17,6,772,320,32,45,-1.69533472070549,1,0.438886600000842,0.0442406000001938,0.316859499998827,0.0201681136180557,1
27,6,773,520,52,45,-1.69533472070549,-1,0.466506100001425,0.0408358999993652,0.516665799998009,0.0201681136180557,0
19,6,774,360,36,-45,-1.69533472070549,-1,0.432327299997269,0.0509565000029397,0.364253699997789,0.0201681136180557,1
14,6,775,260,26,45,-1.69533472070549,1,0.482738400001836,0.0446085999974457,0.256548699999257,0.0201681136180557,1
38,6,776,740,74,45,-1.69533472070549,1,0.544438900000387,0.0454568000022846,0.738037799997983,0.0201681136180557,1
6,6,777,100,10,45,-1.69533472070549,1,0.452663599997322,0.0500651000002108,0.121081200002664,0.0201681136180557,1
3,6,778,40,4,45,-1.69533472070549,1,0.501696000002994,0.0400292000012996,0.0504707999971288,0.0201681136180557,1
27,6,779,520,52,45,-1.69533472070549,1,0.544776300001104,0.0427120000022114,0.516540099997655,0.0201681136180557,1
36,6,780,700,70,-45,-1.69533472070549,-1,0.524678300000232,0.050606600001629,0.704412399998546,0.0201681136180557,1
6,6,781,100,10,-45,-1.69533472070549,-1,0.407135099998413,0.0503562999983842,0.102676200000133,0.0201681136180557,1
32,6,782,620,62,-45,-1.69533472070549,-1,0.36376139999993,0.0506945000015548,0.62465759999759,0.0201681136180557,1
51,6,783,1000,100,45,-1.69533472070549,1,0.499620599999616,0.0503312000000733,1.00245369999902,0.0201681136180557,1
4,6,784,60,6,-45,-1.69533472070549,-1,0.444747199999256,0.0410629000034533,0.0738316999995732,0.0201681136180557,1
37,6,785,720,72,-45,-1.69533472070549,-1,0.33997620000082,0.0451810999984446,0.718790399998397,0.0201681136180557,1
31,6,786,600,60,45,-1.69533472070549,-1,0.703020900000411,0.0438479000004008,0.596752099998412,0.0201681136180557,0
14,6,787,260,26,-45,-1.69533472070549,1,0.435709400000633,0.0512600000001839,0.264930800000002,0.0201681136180557,0
19,6,788,360,36,-45,-1.69533472070549,-1,0.592069999998785,0.0430355999997118,0.35680350000257,0.0201681136180557,1
39,6,789,760,76,45,-1.69533472070549,1,0.393293299999641,0.0474367999995593,0.759171800000331,0.0201681136180557,1
15,6,790,280,28,45,-1.69533472070549,1,0.44913870000164,0.0425648999989789,0.276838099998713,0.0201681136180557,1
4,6,791,60,6,-45,-1.69533472070549,1,0.421956800000771,0.0478665000009642,0.058707800002594,0.0201681136180557,0
1,6,792,0,0,45,-1.69533472070549,-1,0.427286199999799,0.050317699999141,0.0186810000013793,0.0201681136180557,0
28,6,793,540,54,45,-1.69533472070549,1,0.317204300001322,0.0417492000015045,0.536877800001093,0.0201681136180557,1
8,6,794,140,14,45,-1.69533472070549,1,0.501019300001644,0.048148099998798,0.138726500001212,0.0201681136180557,1
6,6,795,100,10,-45,-1.69533472070549,1,0.750808099997812,0.0466349000016635,0.0985115999974369,0.0201681136180557,0
29,6,796,560,56,45,-1.69533472070549,1,0.592698100001144,0.0402362310051103,0.566723100000672,0.0201681136180557,1
49,6,797,960,96,45,-1.69533472070549,-1,0.423817299997609,0.0432116000010865,0.957101899999543,0.0201681136180557,0
8,6,798,140,14,-45,-1.69533472070549,-1,0.443613399998867,0.0440116999998281,0.136328600001434,0.0201681136180557,1
24,6,799,460,46,45,-1.69533472070549,1,0.387100399999326,0.0487467999992077,0.460325000000012,0.0201681136180557,1
20,6,800,380,38,45,-1.69533472070549,1,0.582781999997678,0.0455066000031366,0.379538799999864,0.0201681136180557,1
21,6,801,400,40,45,-1.69533472070549,1,0.586001499999838,0.0508761999990384,0.40325170000142,0.0201681136180557,1
26,6,802,500,50,-45,-1.69533472070549,-1,0.44825629999832,0.0453765000020212,0.498051399998076,0.0201681136180557,1
11,6,803,200,20,-45,-1.69533472070549,-1,0.674325799998769,0.04068929999994,0.196638900000835,0.0201681136180557,1
22,6,804,420,42,-45,-1.69533472070549,-1,0.624278700001014,0.0445575000012468,0.419099499998993,0.0201681136180557,1
7,6,805,120,12,-45,-1.69533472070549,-1,0.586793499998748,0.0456391000006988,0.119576100001723,0.0201681136180557,1
33,6,806,640,64,45,-1.69533472070549,1,0.519532299997081,0.0437347000006412,0.63692109999829,0.0201681136180557,1
42,6,807,820,82,45,-1.69533472070549,1,0.485308800001803,0.0413483999982418,0.816963500001293,0.0201681136180557,1
12,6,808,220,22,45,-1.69533472070549,1,0.572141600001487,0.0496501999987231,0.226055800001632,0.0201681136180557,1
25,6,809,480,48,-45,-1.69533472070549,1,1.00431299999764,0.0503160000007483,0.48115179999877,0.0201681136180557,0
13,6,810,240,24,-45,-1.69533472070549,-1,0.502924099997472,0.0433718999993289,0.237728299998707,0.0201681136180557,1
32,6,811,620,62,45,-1.69533472070549,1,0.567460199999914,0.0451381351958844,0.619208664804319,0.0201681136180557,1
29,6,812,560,56,-45,-1.69533472070549,1,0.528150000001915,0.0484106000003521,0.558993899998313,0.0201681136180557,0
18,6,813,340,34,-45,-1.69533472070549,-1,0.546877099997801,0.0433314999972936,0.337904899999558,0.0201681136180557,1
50,6,814,980,98,-45,-1.69533472070549,-1,0.48547459999827,0.0499021999967226,0.98448930000086,0.0201681136180557,1
1,6,815,0,0,-45,-1.69533472070549,-1,0.584038600001804,0.050284235196159,0.0213357648026431,0.0201681136180557,1
16,6,816,300,30,-45,-1.69533472070549,-1,0.516001200001483,0.0478049296070822,0.300005599998258,0.0201681136180557,1
3,6,817,40,4,45,-1.69533472070549,1,0.605247799998324,0.0451190999992832,0.0378329999984999,0.0201681136180557,1
30,6,818,580,58,-45,-1.69533472070549,1,0.485984399998415,0.0413520000001881,0.576901699998416,0.0201681136180557,0
17,6,819,320,32,45,-1.69533472070549,-1,0.633493000001181,0.0415745999998762,0.316558200000145,0.0201681136180557,0
3,6,820,40,4,45,-1.69533472070549,-1,0.564142399998673,0.0509280000005674,0.0571399000000383,0.0201681136180557,0
43,6,821,840,84,-45,-1.69533472070549,1,0.448117799998727,0.0494786000017484,0.846551300001011,0.0201681136180557,0
48,6,822,940,94,45,-1.69533472070549,1,0.474417900000844,0.0440540365925699,0.93727826340546,0.0201681136180557,1
40,6,823,780,78,-45,-1.69533472070549,1,0.60564610000074,0.0511503000016091,0.782816599999933,0.0201681136180557,0
8,6,824,140,14,45,-1.69533472070549,1,0.438043399997696,0.0466028000009828,0.139462399998592,0.0201681136180557,1
50,6,825,980,98,-45,-1.69533472070549,1,0.476327600001241,0.0474556999979541,0.980023000000074,0.0201681136180557,0
45,6,826,880,88,-45,-1.69533472070549,-1,0.566209399999934,0.0508809000020847,0.88670639999691,0.0201681136180557,1
43,6,827,840,84,45,-1.69533472070549,-1,0.497013500000321,0.0494365000013204,0.845716399999219,0.0201681136180557,0
22,6,828,420,42,45,-1.69533472070549,-1,0.443397499999264,0.0490155337975011,0.419695066200802,0.0201681136180557,0
7,6,829,120,12,45,-1.69533472070549,-1,0.482922899998812,0.0407453000007081,0.116313499998796,0.0201681136180557,0
39,6,830,760,76,45,-1.69533472070549,1,0.464063200000965,0.0503093000006629,0.76524100000097,0.0201681136180557,1
12,6,831,220,22,45,-1.69533472070549,1,0.583681299998716,0.0464718999974139,0.217975499999739,0.0201681136180557,1
41,6,832,800,80,-45,-1.69533472070549,-1,0.692028499997832,0.0448098000015307,0.798881799997616,0.0201681136180557,1
10,6,833,180,18,-45,-1.69533472070549,1,0.436125399999582,0.0509534000011627,0.184957299999951,0.0201681136180557,0
35,6,834,680,68,-45,-1.69533472070549,1,0.378257599997596,0.0461482999999134,0.679429100000561,0.0201681136180557,0
23,6,835,440,44,45,-1.69533472070549,1,0.508644999998069,0.0454692000021168,0.438044299997273,0.0201681136180557,1
9,6,836,160,16,45,-1.69533472070549,1,0.602706400000898,0.0501570999986143,0.163233200000832,0.0201681136180557,1
47,6,837,920,92,45,-1.69533472070549,1,0.494255499997962,0.0444274000001315,0.917464699999982,0.0201681136180557,1
13,6,838,240,24,-45,-1.69533472070549,-1,0.470960999999079,0.0437746999996307,0.237388400000782,0.0201681136180557,1
44,6,839,860,86,-45,-1.69533472070549,-1,0.525127699998848,0.0418591000016022,0.856822899997496,0.0201681136180557,1
2,6,840,20,2,-45,-1.69533472070549,-1,0.582261799998378,0.0399916999995185,0.033796199997596,0.0201681136180557,1
45,6,841,880,88,45,-1.69533472070549,-1,0.513606399999844,0.0469159999993281,0.879414600000018,0.0201681136180557,0
15,6,842,280,28,-45,-1.69533472070549,1,0.44898269999976,0.0508866000018315,0.284027800000331,0.0201681136180557,0
41,6,843,800,80,-45,-1.69533472070549,-1,0.473772400000598,0.0413028000002669,0.797043899998243,0.0201681136180557,1
25,6,844,480,48,45,-1.69533472070549,1,0.486241900001914,0.0442234000001918,0.477096100003109,0.0201681136180557,1
22,6,845,420,42,-45,-1.69533472070549,-1,0.688243099997635,0.0458910999986983,0.417956400000548,0.0201681136180557,1
46,6,846,900,90,-45,-1.69533472070549,-1,0.494648300002154,0.0453723000027821,0.900027499999851,0.0201681136180557,1
26,6,847,500,50,45,-1.69533472070549,-1,0.711997300000803,0.0497398999978031,0.502230199999758,0.0201681136180557,0
40,6,848,780,78,-45,-1.69533472070549,-1,0.47942840000178,0.0406538000024739,0.776099099999556,0.0201681136180557,1
34,6,849,660,66,45,-1.69533472070549,1,0.596928200000548,0.0422431000006327,0.656964099998731,0.0201681136180557,1
10,6,850,180,18,45,-1.69533472070549,1,0.438291299997218,0.050527699997474,0.183516200002487,0.0201681136180557,1
26,6,851,500,50,45,-1.69533472070549,1,0.493739000001369,0.046749599998293,0.499187400000665,0.0201681136180557,1
31,6,852,600,60,-45,-1.69533472070549,-1,0.597183199999563,0.0493934999976773,0.601573400002962,0.0201681136180557,1
10,6,853,180,18,45,-1.69533472070549,-1,0.499739799997769,0.0436315999977523,0.176484600000549,0.0201681136180557,0
46,6,854,900,90,45,-1.69533472070549,1,0.431395100000373,0.0452754999969329,0.899722800000745,0.0201681136180557,1
40,6,855,780,78,45,-1.69533472070549,1,0.71622760000173,0.0502975999988848,0.785489499998221,0.0201681136180557,1
48,6,856,940,94,-45,-1.69533472070549,-1,0.471466999999393,0.045287199998711,0.939286700002413,0.0201681136180557,1
34,6,857,660,66,-45,-1.69533472070549,-1,0.407985699999699,0.0493911999983538,0.662474600001588,0.0201681136180557,1
35,6,858,680,68,45,-1.69533472070549,-1,0.46681300000273,0.0502646999993885,0.682876300001226,0.0201681136180557,0
28,6,859,540,54,45,-1.69533472070549,-1,0.539036099999066,0.0437137999979313,0.53669169999921,0.0201681136180557,0
7,6,860,120,12,45,-1.69533472070549,-1,0.51305019999927,0.0425611999999091,0.116308200002095,0.0201681136180557,0
27,6,861,520,52,-45,-1.69533472070549,-1,0.579640100000688,0.0503247000015108,0.521675100000721,0.0201681136180557,1
24,6,862,460,46,-45,-1.69533472070549,1,0.443041499998799,0.0442458999968949,0.456698300000426,0.0201681136180557,0
35,6,863,680,68,-45,-1.69533472070549,-1,0.617320999997901,0.0400335000013001,0.686587699998199,0.0201681136180557,1
9,6,864,160,16,45,-1.69533472070549,-1,0.533728599999449,0.044905499999004,0.157519899999897,0.0201681136180557,0
19,6,865,360,36,-45,-1.69533472070549,-1,0.478282200001559,0.043961200000922,0.358013299999584,0.0201681136180557,1
47,6,866,920,92,45,-1.69533472070549,1,0.544501399999717,0.0421887999982573,0.917220999999699,0.0201681136180557,1
